time,seconds_elapsed,z,y,x
1699734109763076400,0.037076416015625,-0.940948486328125,-0.2747650146484375,0.0849761962890625
1699734109773050400,0.04705029296875,-0.93951416015625,-0.2710723876953125,0.0863800048828125
1699734109783091200,0.05709130859375,-0.9335174560546875,-0.2607574462890625,0.083251953125
1699734109793101300,0.067101318359375,-0.9330596923828125,-0.257659912109375,0.0800323486328125
1699734109803141400,0.077141357421875,-0.9289703369140625,-0.2554931640625,0.0813751220703125
1699734109813151200,0.087151123046875,-0.9218597412109375,-0.2519683837890625,0.0807342529296875
1699734109823191300,0.09719140625,-0.92120361328125,-0.2500152587890625,0.07818603515625
1699734109833201400,0.107201416015625,-0.92510986328125,-0.251861572265625,0.0749969482421875
1699734109843210200,0.117210205078125,-0.929412841796875,-0.255157470703125,0.0709075927734375
1699734109853251300,0.127251220703125,-0.9302520751953125,-0.2618255615234375,0.0659332275390625
1699734109863260200,0.13726025390625,-0.9313201904296875,-0.2678985595703125,0.0635223388671875
1699734109873301200,0.14730126953125,-0.9312896728515625,-0.27557373046875,0.060150146484375
1699734109883310300,0.157310302734375,-0.931488037109375,-0.2799530029296875,0.0558929443359375
1699734109893351400,0.167351318359375,-0.9375457763671875,-0.283843994140625,0.052154541015625
1699734109903361300,0.177361328125,-0.9422760009765625,-0.28570556640625,0.04815673828125
1699734109913401300,0.1874013671875,-0.94622802734375,-0.2830657958984375,0.0439910888671875
1699734109923411500,0.197411376953125,-0.9497222900390625,-0.28070068359375,0.0413360595703125
1699734109933451500,0.207451416015625,-0.95062255859375,-0.281158447265625,0.040252685546875
1699734109943461400,0.21746142578125,-0.949920654296875,-0.280029296875,0.0387115478515625
1699734109953501200,0.227501220703125,-0.9509429931640625,-0.27972412109375,0.037078857421875
1699734109963511300,0.23751123046875,-0.9529266357421875,-0.2809600830078125,0.0358734130859375
1699734109973551400,0.24755126953125,-0.954620361328125,-0.28167724609375,0.035003662109375
1699734109983561200,0.257561279296875,-0.955108642578125,-0.2833404541015625,0.035308837890625
1699734109993601300,0.267601318359375,-0.9506072998046875,-0.2828826904296875,0.0337677001953125
1699734110003611400,0.277611328125,-0.949493408203125,-0.28338623046875,0.0294647216796875
1699734110013651500,0.2876513671875,-0.947113037109375,-0.2846221923828125,0.0278167724609375
1699734110023661300,0.297661376953125,-0.945098876953125,-0.2883453369140625,0.0245819091796875
1699734110033701400,0.307701416015625,-0.9437713623046875,-0.2943878173828125,0.024444580078125
1699734110043711200,0.317711181640625,-0.9431304931640625,-0.298828125,0.02618408203125
1699734110053751300,0.327751220703125,-0.941925048828125,-0.30072021484375,0.0262298583984375
1699734110063761200,0.33776123046875,-0.938446044921875,-0.3005218505859375,0.0267333984375
1699734110073801200,0.34780126953125,-0.934844970703125,-0.299896240234375,0.0267486572265625
1699734110083811300,0.357811279296875,-0.9317474365234375,-0.2970733642578125,0.02850341796875
1699734110093851400,0.367851318359375,-0.9251708984375,-0.295654296875,0.029296875
1699734110103861200,0.377861328125,-0.9203338623046875,-0.2939300537109375,0.029327392578125
1699734110113901300,0.3879013671875,-0.91693115234375,-0.2938385009765625,0.029693603515625
1699734110123911400,0.397911376953125,-0.9150238037109375,-0.2952117919921875,0.029541015625
1699734110133951200,0.407951171875,-0.9138946533203125,-0.2967071533203125,0.0275421142578125
1699734110143961000,0.417961181640625,-0.913604736328125,-0.2982025146484375,0.0203704833984375
1699734110154001200,0.428001220703125,-0.9140777587890625,-0.303314208984375,0.0186004638671875
1699734110164011300,0.43801123046875,-0.914337158203125,-0.3071441650390625,0.0182952880859375
1699734110174051300,0.44805126953125,-0.9167327880859375,-0.3115234375,0.017852783203125
1699734110184061200,0.458061279296875,-0.920928955078125,-0.3163299560546875,0.0187225341796875
1699734110194101200,0.468101318359375,-0.9246826171875,-0.3203582763671875,0.0144500732421875
1699734110204111400,0.478111328125,-0.9311065673828125,-0.32269287109375,0.00689697265625
1699734110214152400,0.48815234375,-0.9333038330078125,-0.3251953125,0.0046539306640625
1699734110224161300,0.498161376953125,-0.929046630859375,-0.3275909423828125,0.0040435791015625
1699734110234171400,0.50817138671875,-0.92584228515625,-0.3277587890625,0.003692626953125
1699734110244211200,0.518211181640625,-0.9269866943359375,-0.3263397216796875,0.0017242431640625
1699734110254221300,0.52822119140625,-0.9256439208984375,-0.326904296875,-0.000946044921875
1699734110264261000,0.53826123046875,-0.9248504638671875,-0.326568603515625,-0.0015411376953125
1699734110274271200,0.548271240234375,-0.926910400390625,-0.3255615234375,-0.0024261474609375
1699734110284311300,0.558311279296875,-0.929656982421875,-0.327728271484375,0.0005645751953125
1699734110294321400,0.5683212890625,-0.931121826171875,-0.32989501953125,0.0016632080078125
1699734110304361200,0.578361328125,-0.933380126953125,-0.329376220703125,0.0027923583984375
1699734110314371300,0.588371337890625,-0.935699462890625,-0.3291015625,0.005401611328125
1699734110324412400,0.598412353515625,-0.934173583984375,-0.3292083740234375,0.0056304931640625
1699734110334421500,0.60842138671875,-0.93292236328125,-0.327301025390625,0.0046844482421875
1699734110344462300,0.61846240234375,-0.934051513671875,-0.3241424560546875,0.0043792724609375
1699734110354471200,0.62847119140625,-0.934783935546875,-0.32373046875,0.0032806396484375
1699734110364512300,0.63851220703125,-0.9326019287109375,-0.3251495361328125,0.0049591064453125
1699734110374521300,0.648521240234375,-0.929412841796875,-0.323883056640625,0.0068511962890625
1699734110384562200,0.658562255859375,-0.9271392822265625,-0.326568603515625,0.0088958740234375
1699734110394571300,0.6685712890625,-0.9222412109375,-0.3318939208984375,0.009490966796875
1699734110404612400,0.6786123046875,-0.921417236328125,-0.337005615234375,0.0100250244140625
1699734110414622200,0.688622314453125,-0.9214630126953125,-0.3380889892578125,0.0084075927734375
1699734110424662300,0.698662353515625,-0.924072265625,-0.3329620361328125,0.0107574462890625
1699734110434672400,0.70867236328125,-0.919189453125,-0.3300018310546875,0.0114898681640625
1699734110444712400,0.71871240234375,-0.91363525390625,-0.3282928466796875,0.00750732421875
1699734110454722300,0.728722412109375,-0.91162109375,-0.324310302734375,0.00640869140625
1699734110464762000,0.73876220703125,-0.9093475341796875,-0.3234100341796875,0.0150146484375
1699734110474772200,0.748772216796875,-0.9124298095703125,-0.3323211669921875,0.0204925537109375
1699734110484812300,0.758812255859375,-0.9192352294921875,-0.33258056640625,0.0162506103515625
1699734110494822100,0.768822265625,-0.918975830078125,-0.326202392578125,0.012481689453125
1699734110504862200,0.7788623046875,-0.9134674072265625,-0.325897216796875,0.0117034912109375
1699734110514872300,0.788872314453125,-0.906158447265625,-0.32806396484375,0.0117645263671875
1699734110524912400,0.798912353515625,-0.9044647216796875,-0.3264617919921875,0.017059326171875
1699734110534922200,0.808922119140625,-0.9031982421875,-0.333587646484375,0.0264892578125
1699734110544962300,0.81896240234375,-0.89532470703125,-0.337982177734375,0.045623779296875
1699734110554972400,0.828972412109375,-0.908416748046875,-0.3425750732421875,0.045379638671875
1699734110565012200,0.83901220703125,-0.928466796875,-0.3473663330078125,0.027252197265625
1699734110575022300,0.849022216796875,-0.930938720703125,-0.3397064208984375,0.0172882080078125
1699734110585050400,0.85905029296875,-0.926239013671875,-0.3296051025390625,0.022216796875
1699734110595060200,0.869060302734375,-0.9288330078125,-0.3290863037109375,0.0261383056640625
1699734110605100300,0.879100341796875,-0.93414306640625,-0.33721923828125,0.027679443359375
1699734110615110400,0.8891103515625,-0.9343109130859375,-0.3492279052734375,0.0292205810546875
1699734110625120500,0.89912060546875,-0.93524169921875,-0.3578033447265625,0.02581787109375
1699734110635160300,0.909160400390625,-0.93402099609375,-0.362823486328125,0.017547607421875
1699734110645170400,0.91917041015625,-0.9326324462890625,-0.3653564453125,0.0134735107421875
1699734110655210500,0.92921044921875,-0.9303131103515625,-0.3714599609375,0.015167236328125
1699734110665220600,0.939220703125,-0.9256134033203125,-0.3766937255859375,0.019317626953125
1699734110675260400,0.949260498046875,-0.9200897216796875,-0.3787994384765625,0.0208892822265625
1699734110685270300,0.959270263671875,-0.9141387939453125,-0.3797607421875,0.0208892822265625
1699734110695310300,0.969310302734375,-0.9093475341796875,-0.3798675537109375,0.023590087890625
1699734110705320400,0.979320556640625,-0.9077911376953125,-0.3843536376953125,0.025726318359375
1699734110715360500,0.989360595703125,-0.9054412841796875,-0.3896942138671875,0.0270843505859375
1699734110725370400,0.999370361328125,-0.9008636474609375,-0.3941192626953125,0.027435302734375
1699734110735410400,1.009410400390625,-0.893707275390625,-0.3981475830078125,0.028961181640625
1699734110745420500,1.019420654296875,-0.886016845703125,-0.403167724609375,0.0255889892578125
1699734110755460600,1.029460693359375,-0.88153076171875,-0.40740966796875,0.02081298828125
1699734110765470500,1.039470458984375,-0.8834075927734375,-0.412200927734375,0.01593017578125
1699734110775510300,1.04951025390625,-0.881500244140625,-0.4163818359375,0.013702392578125
1699734110785520400,1.059520263671875,-0.87957763671875,-0.4209747314453125,0.0125885009765625
1699734110795560400,1.069560546875,-0.8767547607421875,-0.425811767578125,0.0135040283203125
1699734110805570300,1.0795703125,-0.872100830078125,-0.43304443359375,0.017608642578125
1699734110815610400,1.0896103515625,-0.8719940185546875,-0.4383087158203125,0.015960693359375
1699734110825620500,1.099620361328125,-0.8708953857421875,-0.4415740966796875,0.0104522705078125
1699734110835661300,1.109661376953125,-0.8682708740234375,-0.4417877197265625,0.0070648193359375
1699734110845670400,1.11967041015625,-0.8683319091796875,-0.4399261474609375,0.007659912109375
1699734110855711500,1.12971142578125,-0.8708953857421875,-0.4418182373046875,0.0084686279296875
1699734110865720600,1.139720458984375,-0.8685760498046875,-0.4484100341796875,0.0101318359375
1699734110875761400,1.149761474609375,-0.864044189453125,-0.4551544189453125,0.011505126953125
1699734110885770200,1.159770263671875,-0.8617095947265625,-0.46002197265625,0.0132598876953125
1699734110895811300,1.169811279296875,-0.858154296875,-0.4635467529296875,0.013092041015625
1699734110905820400,1.1798203125,-0.85528564453125,-0.4650115966796875,0.0113067626953125
1699734110915861200,1.189861328125,-0.856475830078125,-0.4661407470703125,0.0070953369140625
1699734110925870300,1.199870361328125,-0.8523406982421875,-0.46820068359375,0.0038909912109375
1699734110935911400,1.209911376953125,-0.8471527099609375,-0.471405029296875,0.005859375
1699734110945921500,1.219921630859375,-0.84490966796875,-0.4760589599609375,0.012542724609375
1699734110955961300,1.22996142578125,-0.847412109375,-0.4793243408203125,0.01605224609375
1699734110965971500,1.239971435546875,-0.8518218994140625,-0.47882080078125,0.0129547119140625
1699734110976011500,1.250011474609375,-0.85198974609375,-0.47784423828125,0.0122833251953125
1699734110986021600,1.260021728515625,-0.8573150634765625,-0.4804534912109375,0.0091552734375
1699734110996030200,1.2700302734375,-0.8503875732421875,-0.4795684814453125,-0.0000152587890625
1699734111006071300,1.2800712890625,-0.83685302734375,-0.4748687744140625,-0.005218505859375
1699734111016080400,1.290080322265625,-0.8399505615234375,-0.4753265380859375,-0.008514404296875
1699734111026121500,1.30012158203125,-0.8423919677734375,-0.487274169921875,-0.0052490234375
1699734111036131300,1.31013134765625,-0.846160888671875,-0.504913330078125,0.0008544921875
1699734111046171400,1.32017138671875,-0.845062255859375,-0.51434326171875,-0.0024871826171875
1699734111056181500,1.330181396484375,-0.8439178466796875,-0.51580810546875,-0.0100250244140625
1699734111066221600,1.3402216796875,-0.8444671630859375,-0.515289306640625,-0.016998291015625
1699734111076231400,1.3502314453125,-0.8484649658203125,-0.5123443603515625,-0.023406982421875
1699734111086271500,1.360271484375,-0.853302001953125,-0.51263427734375,-0.027435302734375
1699734111096281600,1.370281494140625,-0.8557281494140625,-0.5175323486328125,-0.02874755859375
1699734111106321400,1.3803212890625,-0.85931396484375,-0.5251312255859375,-0.026214599609375
1699734111116331300,1.390331298828125,-0.8629150390625,-0.53277587890625,-0.0204620361328125
1699734111126371300,1.400371337890625,-0.8669891357421875,-0.53570556640625,-0.014404296875
1699734111136381400,1.41038134765625,-0.8739776611328125,-0.5390472412109375,-0.010223388671875
1699734111146421500,1.42042138671875,-0.86956787109375,-0.5352630615234375,-0.007354736328125
1699734111156431400,1.430431396484375,-0.86212158203125,-0.531280517578125,-0.0022125244140625
1699734111166471400,1.440471435546875,-0.859588623046875,-0.5328521728515625,0.00677490234375
1699734111176481500,1.4504814453125,-0.8470916748046875,-0.532867431640625,0.0124053955078125
1699734111186521600,1.460521484375,-0.8358001708984375,-0.5245513916015625,0.0119476318359375
1699734111196531500,1.470531494140625,-0.833740234375,-0.5162353515625,0.0098876953125
1699734111206571300,1.4805712890625,-0.8314056396484375,-0.519561767578125,0.005584716796875
1699734111216581400,1.490581298828125,-0.8278656005859375,-0.535491943359375,0.0020751953125
1699734111226621400,1.500621337890625,-0.825927734375,-0.5547332763671875,0.0014190673828125
1699734111236631300,1.51063134765625,-0.822418212890625,-0.570159912109375,0.0009307861328125
1699734111246671400,1.52067138671875,-0.8174591064453125,-0.5785064697265625,0.0027008056640625
1699734111256681500,1.530681396484375,-0.8090667724609375,-0.57965087890625,0.001739501953125
1699734111266721500,1.540721435546875,-0.7977142333984375,-0.5779876708984375,-0.005523681640625
1699734111276731400,1.5507314453125,-0.7872772216796875,-0.581573486328125,-0.0153656005859375
1699734111286771500,1.560771484375,-0.7719573974609375,-0.58721923828125,-0.0146026611328125
1699734111296781600,1.570781494140625,-0.7603607177734375,-0.5890045166015625,-0.0081939697265625
1699734111306821400,1.5808212890625,-0.753570556640625,-0.591278076171875,0.000396728515625
1699734111316831200,1.590831298828125,-0.7472686767578125,-0.601470947265625,0.0068206787109375
1699734111326871300,1.600871337890625,-0.7404937744140625,-0.61407470703125,0.0100250244140625
1699734111336881400,1.61088134765625,-0.7374725341796875,-0.6285400390625,0.0094451904296875
1699734111346922500,1.620922607421875,-0.74017333984375,-0.6436920166015625,0.0102081298828125
1699734111356931300,1.630931396484375,-0.73651123046875,-0.652984619140625,0.0128021240234375
1699734111366972400,1.640972412109375,-0.7333831787109375,-0.65411376953125,0.009918212890625
1699734111376981500,1.6509814453125,-0.7309417724609375,-0.6571807861328125,0.0015869140625
1699734111386991600,1.66099169921875,-0.725433349609375,-0.66473388671875,-0.00439453125
1699734111397031400,1.671031494140625,-0.7207183837890625,-0.67218017578125,-0.0048980712890625
1699734111407041300,1.681041259765625,-0.7173919677734375,-0.6796722412109375,-0.006256103515625
1699734111417081300,1.691081298828125,-0.713226318359375,-0.6932830810546875,-0.0075225830078125
1699734111427091500,1.701091552734375,-0.7021636962890625,-0.7109527587890625,-0.00244140625
1699734111437131500,1.711131591796875,-0.6819915771484375,-0.7231903076171875,0.0076904296875
1699734111447141400,1.721141357421875,-0.6716156005859375,-0.7306365966796875,0.0225067138671875
1699734111457182500,1.731182373046875,-0.6708831787109375,-0.740478515625,0.03558349609375
1699734111467191600,1.741191650390625,-0.667144775390625,-0.7599334716796875,0.0410919189453125
1699734111477232400,1.751232421875,-0.6625518798828125,-0.77874755859375,0.0299224853515625
1699734111487241500,1.761241455078125,-0.6540069580078125,-0.7840118408203125,0.0156097412109375
1699734111497282600,1.771282470703125,-0.64471435546875,-0.7787017822265625,0.01531982421875
1699734111507291400,1.78129150390625,-0.6473846435546875,-0.7768402099609375,0.0198974609375
1699734111517332200,1.791332275390625,-0.636932373046875,-0.78411865234375,0.0286407470703125
1699734111527341300,1.80134130859375,-0.61962890625,-0.792510986328125,0.034423828125
1699734111537382400,1.81138232421875,-0.603973388671875,-0.8030853271484375,0.0357666015625
1699734111547391500,1.8213916015625,-0.5892181396484375,-0.81109619140625,0.0329742431640625
1699734111557432300,1.831432373046875,-0.57952880859375,-0.81756591796875,0.0235748291015625
1699734111567442400,1.8414423828125,-0.5640869140625,-0.8282470703125,0.0193939208984375
1699734111577482500,1.851482421875,-0.551513671875,-0.83294677734375,0.02301025390625
1699734111587495400,1.861495361328125,-0.543731689453125,-0.8408355712890625,0.0295867919921875
1699734111597535500,1.871535400390625,-0.528839111328125,-0.8441009521484375,0.0297088623046875
1699734111607545300,1.88154541015625,-0.5229949951171875,-0.8436431884765625,0.0295257568359375
1699734111617585400,1.89158544921875,-0.5176849365234375,-0.8492279052734375,0.0308685302734375
1699734111627595500,1.901595458984375,-0.5067291259765625,-0.8566436767578125,0.030670166015625
1699734111637635600,1.911635498046875,-0.5,-0.862518310546875,0.0291748046875
1699734111647645400,1.9216455078125,-0.49298095703125,-0.872833251953125,0.029541015625
1699734111657685500,1.931685546875,-0.485809326171875,-0.8865966796875,0.02899169921875
1699734111667695600,1.941695556640625,-0.478668212890625,-0.899658203125,0.026763916015625
1699734111677735400,1.9517353515625,-0.4740753173828125,-0.907470703125,0.02911376953125
1699734111687745300,1.961745361328125,-0.4742889404296875,-0.9124603271484375,0.0269317626953125
1699734111697785300,1.971785400390625,-0.46881103515625,-0.9158172607421875,0.023101806640625
1699734111707795500,1.98179541015625,-0.4582672119140625,-0.9140777587890625,0.022308349609375
1699734111717835500,1.99183544921875,-0.451171875,-0.9122161865234375,0.0174560546875
1699734111727845400,2.001845458984375,-0.4337615966796875,-0.9138946533203125,0.015350341796875
1699734111737885400,2.011885498046875,-0.409698486328125,-0.9139862060546875,0.0189208984375
1699734111747895600,2.0218955078125,-0.390960693359375,-0.9133758544921875,0.0236053466796875
1699734111757935600,2.031935546875,-0.3767547607421875,-0.914215087890625,0.024383544921875
1699734111767945500,2.041945556640625,-0.3636474609375,-0.919189453125,0.020751953125
1699734111777955600,2.05195556640625,-0.3522186279296875,-0.9225006103515625,0.015167236328125
1699734111787995400,2.061995361328125,-0.34228515625,-0.922821044921875,0.011871337890625
1699734111798005200,2.072005126953125,-0.33416748046875,-0.9259796142578125,0.0076446533203125
1699734111808045300,2.08204541015625,-0.3303985595703125,-0.928466796875,-0.0025787353515625
1699734111818055400,2.092055419921875,-0.3253326416015625,-0.9299163818359375,-0.0105133056640625
1699734111828095500,2.102095458984375,-0.31341552734375,-0.931396484375,-0.0134124755859375
1699734111838105300,2.112105224609375,-0.2998504638671875,-0.93402099609375,-0.009002685546875
1699734111848145400,2.1221455078125,-0.287445068359375,-0.9326629638671875,-0.0006256103515625
1699734111858155500,2.132155517578125,-0.275543212890625,-0.9308319091796875,0.0066070556640625
1699734111868195600,2.142195556640625,-0.2645721435546875,-0.9344940185546875,0.0111083984375
1699734111878205400,2.152205322265625,-0.254791259765625,-0.9393157958984375,0.0160675048828125
1699734111888245200,2.162245361328125,-0.244781494140625,-0.93731689453125,0.0159454345703125
1699734111898255400,2.17225537109375,-0.2353668212890625,-0.9364776611328125,0.017730712890625
1699734111908295400,2.18229541015625,-0.2352752685546875,-0.9325408935546875,0.0247344970703125
1699734111918305300,2.19230517578125,-0.2400054931640625,-0.931671142578125,0.0291290283203125
1699734111928345300,2.202345458984375,-0.2412872314453125,-0.9376068115234375,0.032440185546875
1699734111938355500,2.21235546875,-0.2443084716796875,-0.9433746337890625,0.0300750732421875
1699734111948395500,2.2223955078125,-0.24237060546875,-0.9453887939453125,0.02685546875
1699734111958405400,2.2324052734375,-0.23724365234375,-0.945770263671875,0.023162841796875
1699734111968446500,2.242446533203125,-0.234375,-0.94696044921875,0.022308349609375
1699734111978455600,2.25245556640625,-0.2314300537109375,-0.9469146728515625,0.0264129638671875
1699734111988496600,2.26249658203125,-0.231201171875,-0.9459075927734375,0.03289794921875
1699734111998505500,2.27250537109375,-0.232086181640625,-0.944244384765625,0.0365447998046875
1699734112008546300,2.28254638671875,-0.2301483154296875,-0.94464111328125,0.033111572265625
1699734112018555400,2.292555419921875,-0.2281951904296875,-0.9435882568359375,0.02496337890625
1699734112028596500,2.302596435546875,-0.226226806640625,-0.9395751953125,0.021270751953125
1699734112038605600,2.31260546875,-0.2242279052734375,-0.9390716552734375,0.017730712890625
1699734112048646400,2.322646484375,-0.2290191650390625,-0.934234619140625,0.0050201416015625
1699734112058655500,2.332655517578125,-0.2597808837890625,-0.9381256103515625,-0.0313720703125
1699734112068696600,2.342696533203125,-0.2917022705078125,-0.972198486328125,-0.01922607421875
1699734112078706400,2.35270654296875,-0.2803192138671875,-0.970611572265625,-0.0092010498046875
1699734112088746200,2.362746337890625,-0.2829437255859375,-0.9708099365234375,0.0061187744140625
1699734112098756400,2.37275634765625,-0.2816009521484375,-0.9694976806640625,0.0172119140625
1699734112108796400,2.38279638671875,-0.2732086181640625,-0.9604339599609375,0.0196990966796875
1699734112118806300,2.39280615234375,-0.2683868408203125,-0.9577178955078125,0.02239990234375
1699734112128846300,2.402846435546875,-0.2637176513671875,-0.95159912109375,0.024749755859375
1699734112138856400,2.4128564453125,-0.2566680908203125,-0.94464111328125,0.028167724609375
1699734112148865500,2.422865478515625,-0.250152587890625,-0.9415435791015625,0.03179931640625
1699734112158906400,2.43290625,-0.2543487548828125,-0.9432830810546875,0.0295562744140625
1699734112168915500,2.44291552734375,-0.272125244140625,-0.9485626220703125,0.015716552734375
1699734112178956500,2.45295654296875,-0.286956787109375,-0.9500274658203125,0.0016937255859375
1699734112188966400,2.46296630859375,-0.297027587890625,-0.9494476318359375,-0.0024261474609375
1699734112199006200,2.473006103515625,-0.297210693359375,-0.9555816650390625,-0.0036468505859375
1699734112209016300,2.483016357421875,-0.2797088623046875,-0.9608306884765625,-0.0066070556640625
1699734112219056400,2.493056396484375,-0.2657318115234375,-0.9611358642578125,-0.014190673828125
1699734112229066500,2.50306640625,-0.2662811279296875,-0.9620361328125,-0.02532958984375
1699734112239106300,2.513106201171875,-0.2715301513671875,-0.9659881591796875,-0.0298614501953125
1699734112249116400,2.523116455078125,-0.2801361083984375,-0.9740142822265625,-0.0279998779296875
1699734112259156500,2.533156494140625,-0.28558349609375,-0.9790496826171875,-0.0227508544921875
1699734112269166600,2.54316650390625,-0.2836761474609375,-0.9785003662109375,-0.0100250244140625
1699734112279206400,2.553206298828125,-0.27655029296875,-0.973602294921875,0.0066986083984375
1699734112289216500,2.563216552734375,-0.27545166015625,-0.9691162109375,0.0162811279296875
1699734112299256300,2.57325634765625,-0.2740478515625,-0.9688568115234375,0.023895263671875
1699734112309266400,2.583266357421875,-0.2738494873046875,-0.9657745361328125,0.0280609130859375
1699734112319306500,2.593306396484375,-0.2714080810546875,-0.9594573974609375,0.0224609375
1699734112329316400,2.60331640625,-0.260894775390625,-0.9564971923828125,0.01336669921875
1699734112339356400,2.6133564453125,-0.255889892578125,-0.9601898193359375,0.0013885498046875
1699734112349366500,2.623366455078125,-0.2598419189453125,-0.967193603515625,-0.0057373046875
1699734112359406600,2.633406494140625,-0.26019287109375,-0.9710845947265625,-0.00604248046875
1699734112369416400,2.64341650390625,-0.2525634765625,-0.9685821533203125,0.00238037109375
1699734112379456500,2.65345654296875,-0.2476806640625,-0.9666290283203125,0.0140228271484375
1699734112389466600,2.663466552734375,-0.251434326171875,-0.9622039794921875,0.022857666015625
1699734112399506400,2.67350634765625,-0.252593994140625,-0.9575042724609375,0.025421142578125
1699734112409516300,2.683516357421875,-0.2563323974609375,-0.9560546875,0.0261993408203125
1699734112419556400,2.693556396484375,-0.2638397216796875,-0.9578399658203125,0.02972412109375
1699734112429566500,2.70356640625,-0.2600555419921875,-0.956634521484375,0.0331878662109375
1699734112439606500,2.7136064453125,-0.2489776611328125,-0.966339111328125,0.0319671630859375
1699734112449616400,2.723616455078125,-0.2538299560546875,-0.9788970947265625,0.04132080078125
1699734112459656400,2.733656494140625,-0.2667388916015625,-0.98052978515625,0.0492401123046875
1699734112469666600,2.74366650390625,-0.2497711181640625,-0.9700927734375,0.0404052734375
1699734112479706600,2.75370654296875,-0.2256011962890625,-0.959625244140625,0.0204925537109375
1699734112489716500,2.763716552734375,-0.2282257080078125,-0.958343505859375,0.0002288818359375
1699734112499757600,2.773757568359375,-0.2231292724609375,-0.9593048095703125,-0.0045318603515625
1699734112509766400,2.783766357421875,-0.22052001953125,-0.9732513427734375,0.0151519775390625
1699734112519807200,2.79380712890625,-0.227508544921875,-0.9922027587890625,0.0413665771484375
1699734112529816300,2.80381640625,-0.2452545166015625,-1.0055389404296875,0.0576629638671875
1699734112539826400,2.813826416015625,-0.25,-0.9870147705078125,0.0555419921875
1699734112549866500,2.823866455078125,-0.2440948486328125,-0.974334716796875,0.0265655517578125
1699734112559876400,2.83387646484375,-0.2634124755859375,-0.990386962890625,0.0128173828125
1699734112569916400,2.84391650390625,-0.2124176025390625,-1.015869140625,0.061767578125
1699734112579926500,2.853926513671875,-0.137359619140625,-1.0031280517578125,0.055419921875
1699734112589976000,2.86397607421875,-0.1675262451171875,-0.959808349609375,0.0497589111328125
1699734112599985000,2.87398486328125,-0.213043212890625,-0.96417236328125,0.048248291015625
1699734112610026000,2.88402587890625,-0.229888916015625,-0.9739532470703125,0.0416412353515625
1699734112620034800,2.894034912109375,-0.224212646484375,-0.95928955078125,0.0315704345703125
1699734112630076000,2.904075927734375,-0.2098388671875,-0.962310791015625,0.0276031494140625
1699734112640085000,2.9140849609375,-0.2009429931640625,-0.9715423583984375,0.02606201171875
1699734112650126000,2.9241259765625,-0.210906982421875,-0.9673614501953125,0.0233306884765625
1699734112660135000,2.934135009765625,-0.2144927978515625,-0.9844512939453125,0.0494537353515625
1699734112670176000,2.944176025390625,-0.1857452392578125,-0.99847412109375,0.0468292236328125
1699734112680185000,2.95418505859375,-0.176300048828125,-0.977020263671875,0.03411865234375
1699734112690226200,2.96422607421875,-0.192596435546875,-0.9682769775390625,0.019012451171875
1699734112700236000,2.974236083984375,-0.20379638671875,-0.970855712890625,0.0000457763671875
1699734112710275800,2.98427587890625,-0.202239990234375,-0.9622039794921875,0.0045623779296875
1699734112720286000,2.994285888671875,-0.205474853515625,-0.961029052734375,0.0250244140625
1699734112730326000,3.004325927734375,-0.19598388671875,-0.964111328125,0.0359954833984375
1699734112740335900,3.0143359375,-0.1964263916015625,-0.97039794921875,0.032135009765625
1699734112750376000,3.0243759765625,-0.2024078369140625,-0.9810943603515625,0.03143310546875
1699734112760386000,3.034385986328125,-0.207733154296875,-0.9764556884765625,0.0344696044921875
1699734112770426000,3.044426025390625,-0.217803955078125,-0.9696197509765625,0.034210205078125
1699734112780436000,3.05443603515625,-0.222442626953125,-0.974822998046875,0.038848876953125
1699734112790476000,3.06447607421875,-0.2231597900390625,-0.9910888671875,0.0557098388671875
1699734112800486100,3.074486083984375,-0.225250244140625,-0.99884033203125,0.056488037109375
1699734112810526000,3.08452587890625,-0.17425537109375,-0.9934539794921875,0.0191497802734375
1699734112820535800,3.094535888671875,-0.174652099609375,-0.9939117431640625,-0.00262451171875
1699734112830575900,3.104575927734375,-0.21392822265625,-1.00079345703125,0.003631591796875
1699734112840586000,3.1145859375,-0.208892822265625,-0.988800048828125,0.0118408203125
1699734112850626000,3.1246259765625,-0.195587158203125,-0.97430419921875,0.01287841796875
1699734112860636000,3.134635986328125,-0.205718994140625,-0.9780731201171875,0.0044097900390625
1699734112870676000,3.144676025390625,-0.215576171875,-0.989654541015625,0.0108184814453125
1699734112880686000,3.15468603515625,-0.160614013671875,-0.99298095703125,0.017913818359375
1699734112890726000,3.164725830078125,-0.130889892578125,-0.987548828125,-0.0039520263671875
1699734112900735700,3.17473583984375,-0.146942138671875,-0.99322509765625,-0.0168304443359375
1699734112910775800,3.18477587890625,-0.153228759765625,-0.99493408203125,-0.0312347412109375
1699734112920786000,3.194785888671875,-0.15509033203125,-0.9911346435546875,-0.0433502197265625
1699734112930796000,3.204796142578125,-0.1646881103515625,-0.991455078125,-0.0290985107421875
1699734112940835800,3.2148359375,-0.17559814453125,-0.9950714111328125,-0.0008392333984375
1699734112950846000,3.224845947265625,-0.20745849609375,-0.98602294921875,0.0008087158203125
1699734112960886000,3.234885986328125,-0.2246856689453125,-0.9819793701171875,-0.0203704833984375
1699734112970896100,3.244896240234375,-0.2143096923828125,-0.99029541015625,-0.06866455078125
1699734112980936000,3.25493603515625,-0.216064453125,-0.994476318359375,-0.105865478515625
1699734112990946000,3.264946044921875,-0.2344970703125,-0.999114990234375,-0.107879638671875
1699734113000985900,3.27498583984375,-0.2575225830078125,-1.00341796875,-0.109161376953125
1699734113010996000,3.284995849609375,-0.245269775390625,-1.0141754150390625,-0.1045074462890625
1699734113021036000,3.2950361328125,-0.191619873046875,-1.014678955078125,-0.0911712646484375
1699734113031046000,3.3050458984375,-0.143218994140625,-1.006744384765625,-0.0783538818359375
1699734113041086000,3.3150859375,-0.1135711669921875,-1.003662109375,-0.0867156982421875
1699734113051096000,3.325095947265625,-0.1008148193359375,-1.005615234375,-0.1185150146484375
1699734113061136100,3.33513623046875,-0.10760498046875,-1.0118865966796875,-0.1529541015625
1699734113071146000,3.34514599609375,-0.1085357666015625,-1.0082550048828125,-0.161163330078125
1699734113081186000,3.35518603515625,-0.104949951171875,-0.99566650390625,-0.14666748046875
1699734113091196200,3.365196044921875,-0.103118896484375,-0.9847412109375,-0.1277618408203125
1699734113101236000,3.375236083984375,-0.102203369140625,-0.968536376953125,-0.1309661865234375
1699734113111245800,3.385245849609375,-0.1182861328125,-0.9692230224609375,-0.1378173828125
1699734113121287000,3.395286865234375,-0.1325225830078125,-0.9775543212890625,-0.13555908203125
1699734113131296000,3.4052958984375,-0.142303466796875,-0.96539306640625,-0.1284942626953125
1699734113141336800,3.4153369140625,-0.1587371826171875,-0.9579620361328125,-0.1372222900390625
1699734113151346000,3.425345947265625,-0.188446044921875,-0.9590606689453125,-0.1640777587890625
1699734113161387000,3.435386962890625,-0.1999359130859375,-0.9619903564453125,-0.202880859375
1699734113171396000,3.44539599609375,-0.1943206787109375,-0.96221923828125,-0.22906494140625
1699734113181437000,3.45543701171875,-0.175750732421875,-0.9645843505859375,-0.2283477783203125
1699734113191446000,3.465446044921875,-0.1437225341796875,-0.96002197265625,-0.2188568115234375
1699734113201487000,3.475487060546875,-0.1342620849609375,-0.9625244140625,-0.2400054931640625
1699734113211497000,3.4854970703125,-0.1510162353515625,-0.971771240234375,-0.29449462890625
1699734113221536800,3.495536865234375,-0.167083740234375,-0.957550048828125,-0.3327484130859375
1699734113231547000,3.505546875,-0.1466064453125,-0.9315338134765625,-0.370391845703125
1699734113241587000,3.5155869140625,-0.11700439453125,-0.9266357421875,-0.3578033447265625
1699734113251596800,3.5255966796875,-0.1629180908203125,-0.9567413330078125,-0.26861572265625
1699734113261636900,3.535636962890625,-0.224365234375,-0.954315185546875,-0.2444915771484375
1699734113271647000,3.54564697265625,-0.2207794189453125,-0.907379150390625,-0.291290283203125
1699734113281687000,3.55568701171875,-0.167724609375,-0.8962249755859375,-0.3745880126953125
1699734113291697200,3.565697265625,-0.140380859375,-0.899871826171875,-0.4028167724609375
1699734113301737000,3.575737060546875,-0.1190643310546875,-0.8731842041015625,-0.416656494140625
1699734113311747000,3.5857470703125,-0.0819091796875,-0.8638458251953125,-0.472564697265625
1699734113321757200,3.595757080078125,-0.0814208984375,-0.860443115234375,-0.4859161376953125
1699734113331797000,3.605796875,-0.1102447509765625,-0.84429931640625,-0.4290313720703125
1699734113341806800,3.615806884765625,-0.144622802734375,-0.8121795654296875,-0.40155029296875
1699734113351847000,3.625846923828125,-0.1588592529296875,-0.7571868896484375,-0.4625244140625
1699734113361857000,3.63585693359375,-0.1540679931640625,-0.727264404296875,-0.5438995361328125
1699734113371897000,3.64589697265625,-0.1794281005859375,-0.736175537109375,-0.6190643310546875
1699734113381907000,3.655906982421875,-0.23126220703125,-0.765533447265625,-0.6632232666015625
1699734113391947000,3.665947021484375,-0.24310302734375,-0.7494659423828125,-0.6622314453125
1699734113401957000,3.67595703125,-0.278961181640625,-0.6617889404296875,-0.63934326171875
1699734113411997200,3.6859970703125,-0.3880767822265625,-0.589996337890625,-0.64202880859375
1699734113422007000,3.696007080078125,-0.4192657470703125,-0.5532684326171875,-0.670562744140625
1699734113432046800,3.706046875,-0.3726654052734375,-0.5189971923828125,-0.6798248291015625
1699734113442057000,3.716056884765625,-0.3098907470703125,-0.493377685546875,-0.682769775390625
1699734113452097000,3.726096923828125,-0.301513671875,-0.46820068359375,-0.7127227783203125
1699734113462107000,3.73610693359375,-0.315093994140625,-0.463409423828125,-0.761322021484375
1699734113472147000,3.74614697265625,-0.31597900390625,-0.4602203369140625,-0.8010406494140625
1699734113482157000,3.756156982421875,-0.3167877197265625,-0.4341888427734375,-0.82159423828125
1699734113492197000,3.766197021484375,-0.322021484375,-0.4133148193359375,-0.8250579833984375
1699734113502207000,3.77620703125,-0.3208770751953125,-0.3752593994140625,-0.8148651123046875
1699734113512247000,3.7862470703125,-0.325958251953125,-0.3203277587890625,-0.845306396484375
1699734113522257000,3.7962568359375,-0.324554443359375,-0.270477294921875,-0.876861572265625
1699734113532297000,3.806296875,-0.295654296875,-0.2177734375,-0.899078369140625
1699734113542306800,3.816306884765625,-0.28656005859375,-0.171783447265625,-0.9253387451171875
1699734113552347000,3.826346923828125,-0.2751007080078125,-0.154266357421875,-0.93585205078125
1699734113562357000,3.83635693359375,-0.2718353271484375,-0.1350860595703125,-0.93670654296875
1699734113572397000,3.84639697265625,-0.285003662109375,-0.1156005859375,-0.9381561279296875
1699734113582407000,3.856406982421875,-0.2891082763671875,-0.0956268310546875,-0.9439239501953125
1699734113592431000,3.86643115234375,-0.2952728271484375,-0.07061767578125,-0.948028564453125
1699734113602441000,3.87644091796875,-0.300567626953125,-0.0471649169921875,-0.9666748046875
1699734113612481000,3.88648095703125,-0.2886810302734375,-0.0161285400390625,-0.985992431640625
1699734113622491100,3.8964912109375,-0.27862548828125,0.010467529296875,-0.987335205078125
1699734113632532200,3.9065322265625,-0.275421142578125,0.0263214111328125,-0.9862213134765625
1699734113642541000,3.916541015625,-0.266448974609375,0.02899169921875,-0.9922943115234375
1699734113652582100,3.92658203125,-0.264617919921875,0.0354461669921875,-0.9839630126953125
1699734113662591000,3.936591064453125,-0.270721435546875,0.052642822265625,-0.977935791015625
1699734113672632000,3.946632080078125,-0.268798828125,0.079833984375,-0.97314453125
1699734113682641200,3.95664111328125,-0.2643280029296875,0.1081390380859375,-0.9750518798828125
1699734113692682000,3.966681884765625,-0.249664306640625,0.1312408447265625,-0.9748077392578125
1699734113702691000,3.976691162109375,-0.232696533203125,0.1645660400390625,-0.961822509765625
1699734113712701200,3.986701171875,-0.2332305908203125,0.1858062744140625,-0.9445343017578125
1699734113722741200,3.9967412109375,-0.2195892333984375,0.189483642578125,-0.944732666015625
1699734113732751000,4.006751220703125,-0.20318603515625,0.20123291015625,-0.948211669921875
1699734113742792200,4.016792236328125,-0.1870269775390625,0.2158355712890625,-0.9383544921875
1699734113752801300,4.02680126953125,-0.1694793701171875,0.2288970947265625,-0.9354095458984375
1699734113762842000,4.036842041015625,-0.1661529541015625,0.243621826171875,-0.938140869140625
1699734113772851000,4.046850830078125,-0.1880035400390625,0.244354248046875,-0.9484100341796875
1699734113782892000,4.05689208984375,-0.19232177734375,0.2454986572265625,-0.9522552490234375
1699734113792901000,4.066901123046875,-0.172210693359375,0.253753662109375,-0.95281982421875
1699734113802942000,4.07694189453125,-0.14923095703125,0.2635040283203125,-0.9586944580078125
1699734113812951000,4.086950927734375,-0.1325531005859375,0.2769317626953125,-0.9737396240234375
1699734113822992100,4.0969921875,-0.1190185546875,0.2823333740234375,-0.9949951171875
1699734113833002000,4.107001953125,-0.1124114990234375,0.277313232421875,-1.0098876953125
1699734113843042000,4.1170419921875,-0.1113128662109375,0.2729644775390625,-1.0120697021484375
1699734113853052200,4.12705224609375,-0.103607177734375,0.2713623046875,-1.001129150390625
1699734113863092200,4.13709228515625,-0.10113525390625,0.2612762451171875,-0.9963531494140625
1699734113873102000,4.14710205078125,-0.1174774169921875,0.24530029296875,-1.00537109375
1699734113883142000,4.157141845703125,-0.12774658203125,0.23028564453125,-1.0133209228515625
1699734113893152000,4.167152099609375,-0.1277008056640625,0.201873779296875,-1.0181884765625
1699734113903192000,4.177192138671875,-0.100738525390625,0.1374664306640625,-1.010009765625
1699734113913202000,4.187201904296875,-0.0594024658203125,0.0684814453125,-0.9816741943359375
1699734113923242000,4.197241943359375,-0.04962158203125,0.03173828125,-0.9345550537109375
1699734113933252000,4.207252197265625,-0.042877197265625,-0.005615234375,-0.8954925537109375
1699734113943292200,4.217292236328125,-0.05120849609375,-0.0423736572265625,-0.894134521484375
1699734113953302300,4.22730224609375,-0.079315185546875,-0.0467529296875,-0.8806610107421875
1699734113963342000,4.237342041015625,-0.0812530517578125,-0.0479736328125,-0.758819580078125
1699734113973352200,4.247352294921875,-0.117523193359375,-0.156524658203125,-0.75909423828125
1699734113983392000,4.25739208984375,-0.1802825927734375,-0.29437255859375,-0.8809814453125
1699734113993402000,4.267402099609375,-0.193115234375,-0.42938232421875,-0.99737548828125
1699734114003442200,4.277442138671875,-0.1630706787109375,-0.523712158203125,-1.013458251953125
1699734114013452000,4.2874521484375,-0.142608642578125,-0.5635833740234375,-0.9636383056640625
1699734114023492000,4.2974921875,-0.10308837890625,-0.6021728515625,-0.8686676025390625
1699734114033502200,4.307502197265625,-0.05859375,-0.62615966796875,-0.7426910400390625
1699734114043542300,4.317542236328125,-0.046051025390625,-0.654296875,-0.6270599365234375
1699734114053552000,4.32755224609375,-0.0753936767578125,-0.70556640625,-0.5404815673828125
1699734114063592200,4.33759228515625,-0.1618499755859375,-0.7801666259765625,-0.539154052734375
1699734114073602300,4.347602294921875,-0.23974609375,-0.8698577880859375,-0.61724853515625
1699734114083642000,4.35764208984375,-0.2939300537109375,-0.939788818359375,-0.6755523681640625
1699734114093652000,4.36765185546875,-0.30950927734375,-1.0081329345703125,-0.6217041015625
1699734114103662000,4.377662109375,-0.3005828857421875,-1.059783935546875,-0.5299072265625
1699734114113702100,4.3877021484375,-0.244232177734375,-1.09942626953125,-0.469024658203125
1699734114123712000,4.3977119140625,-0.16058349609375,-1.1330413818359375,-0.4866180419921875
1699734114133752000,4.407751953125,-0.093963623046875,-1.1650543212890625,-0.6342926025390625
1699734114143762200,4.41776220703125,-0.08294677734375,-1.1051788330078125,-0.63140869140625
1699734114153802200,4.42780224609375,-0.111175537109375,-1.002593994140625,-0.50872802734375
1699734114163812000,4.43781201171875,-0.2075347900390625,-0.9285430908203125,-0.331756591796875
1699734114173852200,4.44785205078125,-0.3975830078125,-0.895599365234375,-0.1044464111328125
1699734114183862300,4.4578623046875,-0.48773193359375,-0.9588775634765625,-0.0194854736328125
1699734114193902000,4.467902099609375,-0.421173095703125,-1.0399322509765625,-0.0227508544921875
1699734114203912000,4.477911865234375,-0.33740234375,-1.020416259765625,-0.0598907470703125
1699734114213952000,4.487951904296875,-0.2755126953125,-0.9735107421875,-0.0773468017578125
1699734114223962000,4.497962158203125,-0.2230987548828125,-0.9426727294921875,-0.044891357421875
1699734114234002200,4.508002197265625,-0.1972503662109375,-0.9049530029296875,0.0152740478515625
1699734114244012000,4.518011962890625,-0.156036376953125,-0.8980255126953125,0.094451904296875
1699734114254053000,4.52805322265625,-0.1356353759765625,-0.8587188720703125,0.177215576171875
1699734114264062200,4.538062255859375,-0.215179443359375,-0.8216094970703125,0.25244140625
1699734114274103000,4.54810302734375,-0.351715087890625,-0.8147125244140625,0.3025970458984375
1699734114284112000,4.55811181640625,-0.37176513671875,-0.822662353515625,0.3065948486328125
1699734114294153000,4.568153076171875,-0.3482818603515625,-0.8084716796875,0.3110809326171875
1699734114304162000,4.578162109375,-0.3342437744140625,-0.7811126708984375,0.32427978515625
1699734114314203100,4.588203125,-0.347686767578125,-0.688720703125,0.345855712890625
1699734114324212000,4.5982119140625,-0.345794677734375,-0.5599212646484375,0.4089813232421875
1699734114334253000,4.608253173828125,-0.3143463134765625,-0.5381622314453125,0.484710693359375
1699734114344262100,4.61826220703125,-0.263916015625,-0.6244354248046875,0.5741119384765625
1699734114354303200,4.62830322265625,-0.2221221923828125,-0.701873779296875,0.63690185546875
1699734114364313000,4.63831298828125,-0.1794586181640625,-0.7811279296875,0.716827392578125
1699734114374353200,4.648353271484375,-0.24749755859375,-0.7696990966796875,0.7374114990234375
1699734114384363300,4.65836328125,-0.3404693603515625,-0.6593170166015625,0.7503814697265625
1699734114394403000,4.668403076171875,-0.3634185791015625,-0.52716064453125,0.7447662353515625
1699734114404413000,4.678412841796875,-0.323516845703125,-0.514923095703125,0.7478179931640625
1699734114414453000,4.688452880859375,-0.2960968017578125,-0.537445068359375,0.742279052734375
1699734114424463000,4.698463134765625,-0.276397705078125,-0.4898834228515625,0.7347869873046875
1699734114434503200,4.708503173828125,-0.263824462890625,-0.4188690185546875,0.752960205078125
1699734114444513000,4.718512939453125,-0.252899169921875,-0.3593597412109375,0.7793121337890625
1699734114454553000,4.728552978515625,-0.2578125,-0.2933502197265625,0.7787017822265625
1699734114464563200,4.738563232421875,-0.268768310546875,-0.2603302001953125,0.774627685546875
1699734114474573000,4.748572998046875,-0.28466796875,-0.25177001953125,0.7756805419921875
1699734114484613000,4.758613037109375,-0.3056488037109375,-0.24432373046875,0.78375244140625
1699734114494623200,4.768623291015625,-0.3340301513671875,-0.2447357177734375,0.80438232421875
1699734114504663000,4.7786630859375,-0.3613433837890625,-0.2618865966796875,0.847137451171875
1699734114514673000,4.7886728515625,-0.368011474609375,-0.2865753173828125,0.887115478515625
1699734114524713000,4.798712890625,-0.350921630859375,-0.2834014892578125,0.8893585205078125
1699734114534723000,4.80872314453125,-0.3433990478515625,-0.284271240234375,0.8828582763671875
1699734114544763100,4.81876318359375,-0.3563079833984375,-0.2929229736328125,0.868255615234375
1699734114554773000,4.82877294921875,-0.3703765869140625,-0.31304931640625,0.8731536865234375
1699734114564813000,4.83881298828125,-0.3819427490234375,-0.320892333984375,0.9250946044921875
1699734114574823200,4.8488232421875,-0.40155029296875,-0.2788848876953125,0.981109619140625
1699734114584866300,4.8588662109375,-0.416168212890625,-0.23797607421875,1.0154571533203125
1699734114594876400,4.86887646484375,-0.40423583984375,-0.2175140380859375,1.0140380859375
1699734114604916200,4.878916259765625,-0.381103515625,-0.2122802734375,0.9774169921875
1699734114614926000,4.888926025390625,-0.3632965087890625,-0.2218780517578125,0.9338226318359375
1699734114624966100,4.898966064453125,-0.3884124755859375,-0.2214813232421875,0.9412994384765625
1699734114634976300,4.908976318359375,-0.420867919921875,-0.206329345703125,0.963409423828125
1699734114645016300,4.919016357421875,-0.4647979736328125,-0.205810546875,0.9639892578125
1699734114655026200,4.929026123046875,-0.48699951171875,-0.232574462890625,0.9549102783203125
1699734114665066200,4.939066162109375,-0.499420166015625,-0.2574462890625,0.945465087890625
1699734114675076400,4.949076416015625,-0.5005645751953125,-0.2951507568359375,0.93853759765625
1699734114685116400,4.959116455078125,-0.5060882568359375,-0.3448944091796875,0.928436279296875
1699734114695126300,4.969126220703125,-0.521453857421875,-0.3802490234375,0.92669677734375
1699734114705166000,4.979166015625,-0.534088134765625,-0.3867645263671875,0.95166015625
1699734114715176200,4.98917626953125,-0.554534912109375,-0.3756103515625,0.9584808349609375
1699734114725216300,4.99921630859375,-0.54217529296875,-0.3784637451171875,0.932220458984375
1699734114735226000,5.00922607421875,-0.493682861328125,-0.4038848876953125,0.92791748046875
1699734114745266200,5.01926611328125,-0.4668731689453125,-0.4188079833984375,0.93603515625
1699734114755276300,5.0292763671875,-0.409423828125,-0.4467926025390625,0.9429473876953125
1699734114765317000,5.039317138671875,-0.3731231689453125,-0.45989990234375,0.9489593505859375
1699734114775326200,5.049326171875,-0.3770599365234375,-0.485565185546875,0.8883819580078125
1699734114785367300,5.0593671875,-0.411865234375,-0.537384033203125,0.803619384765625
1699734114795376400,5.06937646484375,-0.451141357421875,-0.5849456787109375,0.71441650390625
1699734114805417200,5.079417236328125,-0.431640625,-0.6243133544921875,0.6443634033203125
1699734114815426000,5.089426025390625,-0.3750457763671875,-0.6545257568359375,0.6236572265625
1699734114825467100,5.099467041015625,-0.3238525390625,-0.66845703125,0.593841552734375
1699734114835476200,5.109476318359375,-0.306976318359375,-0.6761016845703125,0.569549560546875
1699734114845517000,5.11951708984375,-0.3043060302734375,-0.692230224609375,0.56707763671875
1699734114855526100,5.129526123046875,-0.3164825439453125,-0.7131500244140625,0.608612060546875
1699734114865536300,5.139536376953125,-0.3052978515625,-0.7383270263671875,0.6939544677734375
1699734114875577000,5.1495771484375,-0.302978515625,-0.7510986328125,0.7144622802734375
1699734114885586200,5.159586181640625,-0.32867431640625,-0.7633514404296875,0.6475982666015625
1699734114895627300,5.169627197265625,-0.3851470947265625,-0.78411865234375,0.619476318359375
1699734114905636400,5.17963623046875,-0.4286041259765625,-0.7802581787109375,0.6306915283203125
1699734114915677200,5.18967724609375,-0.3517913818359375,-0.742095947265625,0.6065673828125
1699734114925686000,5.19968603515625,-0.2934417724609375,-0.724273681640625,0.51080322265625
1699734114935727000,5.20972705078125,-0.301177978515625,-0.776153564453125,0.3369293212890625
1699734114945736200,5.219736083984375,-0.2864532470703125,-0.8381805419921875,0.1941680908203125
1699734114955777300,5.22977734375,-0.2357940673828125,-0.8955230712890625,0.1414947509765625
1699734114965786000,5.2397861328125,-0.2445068359375,-0.9315032958984375,0.1335906982421875
1699734114975827200,5.2498271484375,-0.24102783203125,-0.95489501953125,0.0951385498046875
1699734114985837300,5.25983740234375,-0.2165374755859375,-0.937835693359375,0.0941162109375
1699734114995877400,5.26987744140625,-0.1845703125,-0.911407470703125,0.0958709716796875
1699734115005887200,5.27988720703125,-0.0860748291015625,-0.880615234375,0.0469512939453125
1699734115015927300,5.28992724609375,0.0283050537109375,-0.8542633056640625,-0.0368499755859375
1699734115025937400,5.2999375,0.0814056396484375,-0.852447509765625,-0.1045989990234375
1699734115035977200,5.309977294921875,0.0662078857421875,-0.8662567138671875,-0.1680145263671875
1699734115045987000,5.319987060546875,0.05596923828125,-0.8863067626953125,-0.2170867919921875
1699734115056027100,5.330027099609375,0.0555419921875,-0.8988189697265625,-0.22918701171875
1699734115066037200,5.340037353515625,0.0230560302734375,-0.9392852783203125,-0.1699981689453125
1699734115076077300,5.350077392578125,-0.0467987060546875,-0.989501953125,-0.0971832275390625
1699734115086087200,5.360087158203125,-0.076934814453125,-0.9833831787109375,-0.085296630859375
1699734115096127200,5.370127197265625,-0.0189971923828125,-0.991302490234375,-0.137176513671875
1699734115106137300,5.380137451171875,0.0475616455078125,-1.0214996337890625,-0.1693115234375
1699734115116177400,5.390177490234375,0.079559326171875,-1.030364990234375,-0.1736602783203125
1699734115126187300,5.400187255859375,0.0597076416015625,-1.0298614501953125,-0.1590728759765625
1699734115136227000,5.41022705078125,0.027679443359375,-1.010498046875,-0.119415283203125
1699734115146237200,5.4202373046875,0.0107574462890625,-0.9920806884765625,-0.1300506591796875
1699734115156277200,5.43027734375,-0.03802490234375,-1.011322021484375,-0.1783294677734375
1699734115166287000,5.440287109375,-0.0738983154296875,-1.0377349853515625,-0.2105712890625
1699734115176327200,5.4503271484375,-0.11578369140625,-1.028656005859375,-0.2066650390625
1699734115186337300,5.460337158203125,-0.1267547607421875,-1.0277557373046875,-0.207061767578125
1699734115196377300,5.47037744140625,-0.1256103515625,-1.035858154296875,-0.1980743408203125
1699734115206387200,5.48038720703125,-0.1524810791015625,-1.0200958251953125,-0.1249542236328125
1699734115216427300,5.49042724609375,-0.0728912353515625,-0.994384765625,-0.0423583984375
1699734115226437400,5.500437255859375,0.0587921142578125,-1.00732421875,-0.0070648193359375
1699734115236477200,5.510477294921875,0.1364288330078125,-1.01336669921875,-0.0442657470703125
1699734115246487000,5.520487060546875,0.14300537109375,-0.9976959228515625,-0.0897369384765625
1699734115256497200,5.5304970703125,0.125823974609375,-0.9913482666015625,-0.118621826171875
1699734115266537200,5.540537109375,0.1471405029296875,-0.9702606201171875,-0.1520233154296875
1699734115276547000,5.550547119140625,0.197509765625,-0.9475860595703125,-0.2072601318359375
1699734115286587100,5.560587158203125,0.23699951171875,-0.9668426513671875,-0.2646484375
1699734115296597200,5.57059716796875,0.2332000732421875,-0.9990692138671875,-0.2566680908203125
1699734115306637300,5.58063720703125,0.194061279296875,-1.0331573486328125,-0.2358856201171875
1699734115316647200,5.590647216796875,0.1340484619140625,-1.0640106201171875,-0.2042694091796875
1699734115326687200,5.600687255859375,0.0108642578125,-1.0592193603515625,-0.1764984130859375
1699734115336697000,5.610697021484375,-0.1004180908203125,-1.0704345703125,-0.165679931640625
1699734115346737200,5.620737060546875,-0.078094482421875,-1.047271728515625,-0.1710205078125
1699734115356747300,5.630747314453125,0.015777587890625,-1.0058135986328125,-0.1790618896484375
1699734115366787000,5.640787109375,0.098968505859375,-0.9903564453125,-0.173370361328125
1699734115376797200,5.650797119140625,0.1621856689453125,-0.9706268310546875,-0.15887451171875
1699734115386838300,5.66083837890625,0.1887664794921875,-0.96893310546875,-0.1678619384765625
1699734115396847400,5.670847412109375,0.18853759765625,-0.9942169189453125,-0.171173095703125
1699734115406888200,5.68088818359375,0.16900634765625,-1.0121917724609375,-0.1328582763671875
1699734115416897300,5.690897216796875,0.062286376953125,-0.9809722900390625,-0.108154296875
1699734115426938400,5.7009384765625,-0.0461578369140625,-1.0244598388671875,-0.1198577880859375
1699734115436947200,5.710947265625,-0.035675048828125,-1.0585174560546875,-0.135498046875
1699734115446988000,5.720988037109375,0.032135009765625,-1.0482177734375,-0.07257080078125
1699734115456997000,5.7309970703125,0.122650146484375,-1.028289794921875,0.0175933837890625
1699734115467038200,5.7410380859375,0.236724853515625,-0.9677734375,0.0392303466796875
1699734115477047300,5.75104736328125,0.2705841064453125,-0.9027099609375,0.04132080078125
1699734115487088000,5.761088134765625,0.235260009765625,-0.89788818359375,0.046173095703125
1699734115497098200,5.77109814453125,0.2871246337890625,-0.8907928466796875,0.02288818359375
1699734115507138300,5.78113818359375,0.352325439453125,-1.0059814453125,-0.033050537109375
1699734115517148200,5.791148193359375,0.285552978515625,-1.127777099609375,-0.09515380859375
1699734115527188200,5.801188232421875,0.23419189453125,-1.13037109375,-0.08306884765625
1699734115537198300,5.8111982421875,0.299102783203125,-1.0816497802734375,0.0056915283203125
1699734115547238100,5.821238037109375,0.3406982421875,-1.0094451904296875,0.0968475341796875
1699734115557248000,5.831248046875,0.3079833984375,-0.9644317626953125,0.104034423828125
1699734115567288000,5.8412880859375,0.2650299072265625,-0.965057373046875,0.104339599609375
1699734115577298200,5.851298095703125,0.1962890625,-0.9820098876953125,0.133575439453125
1699734115587342600,5.861342529296875,0.1439056396484375,-1.0047760009765625,0.1455841064453125
1699734115597352400,5.8713525390625,0.158660888671875,-1.0070648193359375,0.144012451171875
1699734115607392500,5.881392578125,0.2061004638671875,-0.9960479736328125,0.1602783203125
1699734115617402600,5.891402587890625,0.2480926513671875,-0.970550537109375,0.1927947998046875
1699734115627442700,5.901442626953125,0.27996826171875,-0.9438934326171875,0.195648193359375
1699734115637452500,5.91145263671875,0.269805908203125,-0.920623779296875,0.2441253662109375
1699734115647462700,5.921462646484375,0.224945068359375,-0.8919219970703125,0.3417510986328125
1699734115657502700,5.931502685546875,0.2526397705078125,-0.9187774658203125,0.35247802734375
1699734115667512600,5.9415126953125,0.261505126953125,-0.9583892822265625,0.3187408447265625
1699734115677552400,5.951552490234375,0.2071075439453125,-0.9504547119140625,0.32281494140625
1699734115687562500,5.9615625,0.1793670654296875,-0.926116943359375,0.3460235595703125
1699734115697602600,5.9716025390625,0.1437225341796875,-0.91204833984375,0.3570709228515625
1699734115707612400,5.9816123046875,0.110076904296875,-0.9029693603515625,0.3795166015625
1699734115717652500,5.991652587890625,0.12213134765625,-0.880859375,0.3824462890625
1699734115727662600,6.00166259765625,0.153411865234375,-0.868194580078125,0.37799072265625
1699734115737702700,6.01170263671875,0.1669464111328125,-0.874176025390625,0.3900299072265625
1699734115747712500,6.02171240234375,0.1770782470703125,-0.8806304931640625,0.39453125
1699734115757752600,6.031752685546875,0.2098846435546875,-0.891510009765625,0.417388916015625
1699734115767762700,6.0417626953125,0.2015228271484375,-0.8972320556640625,0.4578094482421875
1699734115777802500,6.051802490234375,0.159088134765625,-0.8887786865234375,0.409759521484375
1699734115787812400,6.061812255859375,0.1269989013671875,-0.88916015625,0.3495025634765625
1699734115797852400,6.071852294921875,0.1007537841796875,-0.8896636962890625,0.3418426513671875
1699734115807862500,6.081862548828125,0.06982421875,-0.8717193603515625,0.3710784912109375
1699734115817902600,6.091902587890625,0.0746307373046875,-0.8794708251953125,0.42095947265625
1699734115827912400,6.101912353515625,0.084197998046875,-0.897247314453125,0.407470703125
1699734115837952500,6.111952392578125,0.1244964599609375,-0.8768310546875,0.357086181640625
1699734115847962600,6.121962646484375,0.1522216796875,-0.87701416015625,0.3092041015625
1699734115858002700,6.132002685546875,0.159698486328125,-0.9014892578125,0.2685699462890625
1699734115868012500,6.142012451171875,0.159332275390625,-0.93426513671875,0.2770843505859375
1699734115878052400,6.15205224609375,0.1462249755859375,-0.966278076171875,0.2802886962890625
1699734115888062500,6.1620625,0.13934326171875,-0.9615478515625,0.215576171875
1699734115898102500,6.1721025390625,0.0848846435546875,-0.9454803466796875,0.146759033203125
1699734115908112600,6.182112548828125,0.009857177734375,-0.95526123046875,0.0933074951171875
1699734115918153500,6.192153564453125,-0.0074310302734375,-0.9676513671875,0.09130859375
1699734115928162600,6.20216259765625,-0.06640625,-0.96759033203125,0.0978851318359375
1699734115938203600,6.21220361328125,-0.1702117919921875,-0.9910430908203125,0.0482025146484375
1699734115948212700,6.222212646484375,-0.20684814453125,-0.9781341552734375,-0.011749267578125
1699734115958253600,6.232253662109375,-0.210784912109375,-0.9318084716796875,-0.0506744384765625
1699734115968262400,6.242262451171875,-0.203094482421875,-0.9262847900390625,-0.0671234130859375
1699734115978303700,6.2523037109375,-0.1893463134765625,-0.9325103759765625,-0.09881591796875
1699734115988312600,6.2623125,-0.1949005126953125,-0.93035888671875,-0.1341705322265625
1699734115998353400,6.272353515625,-0.22515869140625,-0.970184326171875,-0.164642333984375
1699734116008363500,6.282363525390625,-0.28009033203125,-0.9867095947265625,-0.149383544921875
1699734116018403600,6.292403564453125,-0.379730224609375,-0.9882049560546875,-0.1591796875
1699734116028413400,6.302413330078125,-0.452972412109375,-0.9945220947265625,-0.172760009765625
1699734116038422500,6.312422607421875,-0.480743408203125,-0.9524078369140625,-0.1185455322265625
1699734116048463600,6.322463623046875,-0.5072784423828125,-0.9147491455078125,-0.047576904296875
1699734116058472700,6.33247265625,-0.4964599609375,-0.906890869140625,0.0401153564453125
1699734116068513500,6.342513427734375,-0.4522552490234375,-0.9004364013671875,0.11871337890625
1699734116078522400,6.3525224609375,-0.43414306640625,-0.8969879150390625,0.1024322509765625
1699734116088563500,6.3625634765625,-0.4166717529296875,-0.9044952392578125,0.0969085693359375
1699734116098572500,6.372572509765625,-0.4078521728515625,-0.9106597900390625,0.1206512451171875
1699734116108613400,6.38261328125,-0.41668701171875,-0.8855438232421875,0.153350830078125
1699734116118623500,6.39262353515625,-0.45159912109375,-0.86407470703125,0.175567626953125
1699734116128663600,6.40266357421875,-0.47216796875,-0.86572265625,0.1951141357421875
1699734116138673700,6.412673583984375,-0.46820068359375,-0.8216094970703125,0.20001220703125
1699734116148713500,6.42271337890625,-0.4890899658203125,-0.8209228515625,0.19647216796875
1699734116158723600,6.4327236328125,-0.4992218017578125,-0.808319091796875,0.216766357421875
1699734116168763600,6.442763671875,-0.498016357421875,-0.8012237548828125,0.2401580810546875
1699734116178773800,6.452773681640625,-0.4816436767578125,-0.819732666015625,0.267730712890625
1699734116188813600,6.4628134765625,-0.449798583984375,-0.8260498046875,0.3194122314453125
1699734116198823400,6.472823486328125,-0.421905517578125,-0.8380889892578125,0.3422698974609375
1699734116208863500,6.482863525390625,-0.4380645751953125,-0.8291473388671875,0.3134765625
1699734116218873600,6.49287353515625,-0.47979736328125,-0.7825775146484375,0.2698516845703125
1699734116228913700,6.50291357421875,-0.49395751953125,-0.762847900390625,0.217559814453125
1699734116238923500,6.512923583984375,-0.5066986083984375,-0.75628662109375,0.18963623046875
1699734116248963600,6.522963623046875,-0.5055999755859375,-0.7238616943359375,0.1847686767578125
1699734116258973700,6.5329736328125,-0.5069122314453125,-0.7049713134765625,0.1761322021484375
1699734116269013800,6.543013671875,-0.5171661376953125,-0.7003173828125,0.1653900146484375
1699734116279023600,6.553023681640625,-0.53338623046875,-0.7127838134765625,0.1736602783203125
1699734116289063400,6.5630634765625,-0.54949951171875,-0.7566680908203125,0.1839141845703125
1699734116299073500,6.573073486328125,-0.5435333251953125,-0.7898101806640625,0.1910400390625
1699734116309113600,6.583113525390625,-0.5508575439453125,-0.7861328125,0.1886444091796875
1699734116319123500,6.59312353515625,-0.56439208984375,-0.7947540283203125,0.18365478515625
1699734116329163500,6.60316357421875,-0.569061279296875,-0.8179168701171875,0.1960296630859375
1699734116339173600,6.613173583984375,-0.565582275390625,-0.8133544921875,0.2134552001953125
1699734116349213700,6.623213623046875,-0.5755767822265625,-0.786773681640625,0.2187347412109375
1699734116359223600,6.6332236328125,-0.603729248046875,-0.7772216796875,0.2571258544921875
1699734116369263600,6.643263671875,-0.58758544921875,-0.7891998291015625,0.32012939453125
1699734116379273700,6.653273681640625,-0.5730438232421875,-0.7781982421875,0.3746337890625
1699734116389313500,6.6633134765625,-0.57147216796875,-0.762664794921875,0.41033935546875
1699734116399323400,6.673323486328125,-0.551727294921875,-0.7387847900390625,0.4257659912109375
1699734116409363500,6.683363525390625,-0.5424957275390625,-0.71734619140625,0.4670257568359375
1699734116419373600,6.69337353515625,-0.5138092041015625,-0.7148590087890625,0.491241455078125
1699734116429383400,6.703383544921875,-0.4981536865234375,-0.7121429443359375,0.5023345947265625
1699734116439423500,6.713423583984375,-0.501495361328125,-0.69732666015625,0.51165771484375
1699734116449433600,6.72343359375,-0.5064697265625,-0.67889404296875,0.51007080078125
1699734116459473700,6.7334736328125,-0.538299560546875,-0.68182373046875,0.496002197265625
1699734116469483500,6.7434833984375,-0.55230712890625,-0.6893768310546875,0.49810791015625
1699734116479523600,6.753523681640625,-0.568572998046875,-0.677032470703125,0.516204833984375
1699734116489533700,6.76353369140625,-0.59527587890625,-0.6739501953125,0.5067291259765625
1699734116499573500,6.773573486328125,-0.6214447021484375,-0.653472900390625,0.4927825927734375
1699734116509583400,6.783583251953125,-0.656280517578125,-0.6452178955078125,0.4817047119140625
1699734116519623400,6.79362353515625,-0.6938018798828125,-0.7057952880859375,0.474517822265625
1699734116529633500,6.803633544921875,-0.7215118408203125,-0.69873046875,0.456939697265625
1699734116539674600,6.813674560546875,-0.7383575439453125,-0.7120819091796875,0.4521331787109375
1699734116549683500,6.823683349609375,-0.7430572509765625,-0.73486328125,0.4537200927734375
1699734116559724500,6.833724609375,-0.758575439453125,-0.7613372802734375,0.4535980224609375
1699734116569733600,6.843733642578125,-0.7981719970703125,-0.80230712890625,0.4329833984375
1699734116579774700,6.853774658203125,-0.799560546875,-0.7931671142578125,0.4201202392578125
1699734116589792300,6.863792236328125,-0.81591796875,-0.777740478515625,0.438262939453125
1699734116599833300,6.873833251953125,-0.849365234375,-0.7639312744140625,0.4538421630859375
1699734116609842200,6.88384228515625,-0.90435791015625,-0.7328033447265625,0.459381103515625
1699734116619883300,6.89388330078125,-0.97906494140625,-0.71881103515625,0.505889892578125
1699734116629893400,6.903893310546875,-1.0028839111328125,-0.7098541259765625,0.575897216796875
1699734116639933400,6.913933349609375,-0.971923828125,-0.6534423828125,0.6241607666015625
1699734116649943300,6.923943359375,-0.956939697265625,-0.6017913818359375,0.6614227294921875
1699734116659983400,6.9339833984375,-0.9294891357421875,-0.600860595703125,0.6746826171875
1699734116669993500,6.943993408203125,-0.876434326171875,-0.6126251220703125,0.6932220458984375
1699734116680033300,6.954033203125,-0.8366546630859375,-0.615936279296875,0.7139434814453125
1699734116690043100,6.964043212890625,-0.8168182373046875,-0.61993408203125,0.7018890380859375
1699734116700083200,6.974083251953125,-0.75531005859375,-0.604217529296875,0.6486968994140625
1699734116710093300,6.98409326171875,-0.6915283203125,-0.58563232421875,0.5817108154296875
1699734116720133400,6.99413330078125,-0.6496734619140625,-0.6204071044921875,0.4756622314453125
1699734116730143200,7.004143310546875,-0.6273956298828125,-0.6882781982421875,0.386260986328125
1699734116740183300,7.014183349609375,-0.6129150390625,-0.7251739501953125,0.3393096923828125
1699734116750193400,7.024193359375,-0.599365234375,-0.721954345703125,0.2578887939453125
1699734116760233500,7.0342333984375,-0.585968017578125,-0.7334747314453125,0.138916015625
1699734116770243300,7.044243408203125,-0.55511474609375,-0.7525634765625,0.02044677734375
1699734116780283100,7.054283203125,-0.5239715576171875,-0.7698974609375,-0.04986572265625
1699734116790293200,7.064293212890625,-0.4685211181640625,-0.783721923828125,-0.06988525390625
1699734116800333300,7.074333251953125,-0.393341064453125,-0.798736572265625,-0.0748748779296875
1699734116810343200,7.08434326171875,-0.3048248291015625,-0.816009521484375,-0.07025146484375
1699734116820353300,7.094353271484375,-0.2204437255859375,-0.8185882568359375,-0.0634613037109375
1699734116830393300,7.104393310546875,-0.1401824951171875,-0.7990264892578125,-0.0697174072265625
1699734116840403200,7.1144033203125,-0.0679931640625,-0.7740325927734375,-0.089508056640625
1699734116850443300,7.124443359375,-0.0061492919921875,-0.7388916015625,-0.1155548095703125
1699734116860453400,7.134453369140625,0.067596435546875,-0.6998291015625,-0.1258544921875
1699734116870493400,7.144493408203125,0.182952880859375,-0.6660308837890625,-0.1328887939453125
1699734116880503300,7.15450341796875,0.2963104248046875,-0.6244964599609375,-0.1407928466796875
1699734116890543000,7.164543212890625,0.3876953125,-0.5833892822265625,-0.1693115234375
1699734116900553200,7.17455322265625,0.462554931640625,-0.5763397216796875,-0.1810150146484375
1699734116910593300,7.18459326171875,0.5271453857421875,-0.57391357421875,-0.1709136962890625
1699734116920603400,7.194603271484375,0.56610107421875,-0.543212890625,-0.1776885986328125
1699734116930643200,7.204643310546875,0.5915069580078125,-0.484954833984375,-0.17352294921875
1699734116940653300,7.2146533203125,0.6096954345703125,-0.4114532470703125,-0.1633148193359375
1699734116950693400,7.224693359375,0.6187286376953125,-0.3323822021484375,-0.156463623046875
1699734116960703500,7.234703369140625,0.6514129638671875,-0.2489471435546875,-0.142547607421875
1699734116970743300,7.244743408203125,0.6865692138671875,-0.1776275634765625,-0.137847900390625
1699734116980753200,7.254753173828125,0.726898193359375,-0.103302001953125,-0.145111083984375
1699734116990793200,7.264793212890625,0.7459564208984375,-0.0213623046875,-0.1470947265625
1699734117000803300,7.27480322265625,0.7683563232421875,0.0373077392578125,-0.1458587646484375
1699734117010843400,7.284843505859375,0.8112945556640625,0.0434112548828125,-0.1329498291015625
1699734117020853200,7.294853271484375,0.839324951171875,0.0650634765625,-0.1419219970703125
1699734117030893300,7.304893310546875,0.8263092041015625,0.1200408935546875,-0.16497802734375
1699734117040903400,7.3149033203125,0.7936553955078125,0.17681884765625,-0.18133544921875
1699734117050944300,7.3249443359375,0.7689208984375,0.2344970703125,-0.1669921875
1699734117060953300,7.334953369140625,0.765167236328125,0.283477783203125,-0.1463470458984375
1699734117070994400,7.344994384765625,0.794036865234375,0.3203887939453125,-0.144134521484375
1699734117081003300,7.355003173828125,0.818603515625,0.3829498291015625,-0.1455078125
1699734117091044000,7.365044189453125,0.8281097412109375,0.43505859375,-0.147369384765625
1699734117101053200,7.37505322265625,0.8333587646484375,0.4902496337890625,-0.140289306640625
1699734117111094300,7.38509423828125,0.8286285400390625,0.5541229248046875,-0.15826416015625
1699734117121103400,7.395103271484375,0.8272552490234375,0.601287841796875,-0.18402099609375
1699734117131144200,7.405144287109375,0.8445281982421875,0.6439361572265625,-0.1730499267578125
1699734117141153300,7.4151533203125,0.8674163818359375,0.6677093505859375,-0.1439361572265625
1699734117151194400,7.4251943359375,0.8530426025390625,0.6847381591796875,-0.1320037841796875
1699734117161204200,7.435204345703125,0.8382568359375,0.6970672607421875,-0.1176910400390625
1699734117171244300,7.445244384765625,0.8194580078125,0.707763671875,-0.1150054931640625
1699734117181254400,7.45525439453125,0.77227783203125,0.7169342041015625,-0.125152587890625
1699734117191294200,7.465294189453125,0.7536468505859375,0.7326202392578125,-0.1177215576171875
1699734117201304300,7.47530419921875,0.7819976806640625,0.7597503662109375,-0.126922607421875
1699734117211313200,7.485313232421875,0.8148956298828125,0.7953643798828125,-0.1447296142578125
1699734117221354200,7.495354248046875,0.8470001220703125,0.831878662109375,-0.151580810546875
1699734117231363300,7.50536328125,0.902496337890625,0.873504638671875,-0.1590576171875
1699734117241404400,7.515404296875,0.98046875,0.9162445068359375,-0.1539154052734375
1699734117251413200,7.525413330078125,1.049530029296875,0.92755126953125,-0.126983642578125
1699734117261454300,7.535454345703125,1.0916595458984375,0.9178924560546875,-0.0864410400390625
1699734117271464400,7.54546435546875,1.1056671142578125,0.9058990478515625,-0.0641021728515625
1699734117281504500,7.55550439453125,1.089935302734375,0.89447021484375,-0.067474365234375
1699734117291514400,7.565514404296875,1.0482177734375,0.88397216796875,-0.0849456787109375
1699734117301554200,7.57555419921875,1.0065765380859375,0.872894287109375,-0.1085357666015625
1699734117311564300,7.585564208984375,0.9870452880859375,0.845916748046875,-0.138427734375
1699734117321604400,7.595604248046875,0.9810028076171875,0.83294677734375,-0.191497802734375
1699734117331614200,7.6056142578125,0.9859466552734375,0.827056884765625,-0.245819091796875
1699734117341654300,7.615654296875,1.00738525390625,0.79541015625,-0.277801513671875
1699734117351664400,7.625664306640625,1.033782958984375,0.746368408203125,-0.3089141845703125
1699734117361704400,7.635704345703125,1.040618896484375,0.7397613525390625,-0.352813720703125
1699734117371714300,7.64571435546875,1.0439605712890625,0.72857666015625,-0.394287109375
1699734117381754400,7.65575439453125,1.0345306396484375,0.6660614013671875,-0.4276123046875
1699734117391764500,7.665764404296875,1.0000152587890625,0.6532440185546875,-0.4438323974609375
1699734117401804300,7.67580419921875,0.9526214599609375,0.6750946044921875,-0.46051025390625
1699734117411814100,7.685814208984375,0.9163818359375,0.655517578125,-0.4805908203125
1699734117421854200,7.695854248046875,0.9047088623046875,0.6398773193359375,-0.5157470703125
1699734117431864300,7.7058642578125,0.90740966796875,0.6603851318359375,-0.572021484375
1699734117441904400,7.715904296875,0.8867645263671875,0.66839599609375,-0.6181640625
1699734117451914200,7.725914306640625,0.8580322265625,0.64141845703125,-0.645904541015625
1699734117461954300,7.735954345703125,0.8812255859375,0.5716552734375,-0.6295928955078125
1699734117471964400,7.74596435546875,0.9141082763671875,0.46539306640625,-0.585906982421875
1699734117482004500,7.75600439453125,0.88482666015625,0.4190826416015625,-0.5691375732421875
1699734117492014300,7.766014404296875,0.863128662109375,0.4085540771484375,-0.569061279296875
1699734117502054100,7.77605419921875,0.8531341552734375,0.399871826171875,-0.57220458984375
1699734117512064300,7.786064208984375,0.8442840576171875,0.3964996337890625,-0.57568359375
1699734117522104300,7.796104248046875,0.826141357421875,0.366729736328125,-0.6054229736328125
1699734117532114200,7.8061142578125,0.8142242431640625,0.3077239990234375,-0.6140289306640625
1699734117542154200,7.816154296875,0.7960205078125,0.2378082275390625,-0.5979766845703125
1699734117552164400,7.826164306640625,0.7489166259765625,0.1549224853515625,-0.585296630859375
1699734117562205400,7.836205322265625,0.7327117919921875,0.10302734375,-0.5691680908203125
1699734117572214300,7.84621435546875,0.7518157958984375,0.047149658203125,-0.5703582763671875
1699734117582255400,7.85625537109375,0.754302978515625,-0.00518798828125,-0.5883331298828125
1699734117592250000,7.86625,0.7666473388671875,-0.031494140625,-0.588043212890625
1699734117602260200,7.87626025390625,0.7857208251953125,-0.0906982421875,-0.587738037109375
1699734117612300000,7.886300048828125,0.7816009521484375,-0.1783294677734375,-0.560150146484375
1699734117622310100,7.89631005859375,0.74407958984375,-0.2640380859375,-0.505889892578125
1699734117632350200,7.90635009765625,0.7064361572265625,-0.3634490966796875,-0.42926025390625
1699734117642360300,7.9163603515625,0.667083740234375,-0.4339447021484375,-0.3941497802734375
1699734117652400000,7.926400146484375,0.6351165771484375,-0.463287353515625,-0.3626251220703125
1699734117662410000,7.936409912109375,0.6360321044921875,-0.4703521728515625,-0.319061279296875
1699734117672451000,7.946451171875,0.63690185546875,-0.4980621337890625,-0.307159423828125
1699734117682460200,7.956460205078125,0.6470794677734375,-0.544708251953125,-0.2560272216796875
1699734117692501000,7.9665009765625,0.64739990234375,-0.597808837890625,-0.1652374267578125
1699734117702510000,7.976510009765625,0.6015167236328125,-0.643585205078125,-0.094390869140625
1699734117712551200,7.98655126953125,0.546875,-0.66705322265625,-0.0274200439453125
1699734117722560300,7.996560302734375,0.509674072265625,-0.6901702880859375,-0.00006103515625
1699734117732601000,8.00660107421875,0.4525146484375,-0.725128173828125,0.00177001953125
1699734117742610000,8.01660986328125,0.4073638916015625,-0.7520599365234375,0.038604736328125
1699734117752651000,8.026651123046875,0.3954925537109375,-0.7622528076171875,0.06573486328125
1699734117762660000,8.03666015625,0.363677978515625,-0.77325439453125,0.095733642578125
1699734117772701000,8.046700927734374,0.3239898681640625,-0.7784576416015625,0.1595306396484375
1699734117782711000,8.0567109375,0.2996978759765625,-0.78619384765625,0.243896484375
1699734117792751000,8.066751220703125,0.277069091796875,-0.802215576171875,0.3177947998046875
1699734117802761000,8.076760986328125,0.240692138671875,-0.797027587890625,0.3679656982421875
1699734117812801000,8.086801025390624,0.2188262939453125,-0.7802581787109375,0.390655517578125
1699734117822811100,8.09681103515625,0.1924591064453125,-0.7660675048828125,0.3818206787109375
1699734117832851200,8.106851318359375,0.15081787109375,-0.757720947265625,0.3851318359375
1699734117842861000,8.116861083984375,0.132965087890625,-0.7544097900390625,0.4127044677734375
1699734117852900900,8.12690087890625,0.11981201171875,-0.744842529296875,0.453155517578125
1699734117862911000,8.136910888671874,0.1087646484375,-0.74871826171875,0.4954833984375
1699734117872951000,8.146950927734375,0.0815582275390625,-0.7326507568359375,0.541534423828125
1699734117882961200,8.156961181640625,0.0532379150390625,-0.7153167724609375,0.5527191162109375
1699734117893001000,8.1670009765625,0.0567626953125,-0.7022857666015625,0.5519866943359375
1699734117903011000,8.177010986328124,0.071807861328125,-0.6644287109375,0.597625732421875
1699734117913051100,8.187051025390625,0.0588531494140625,-0.6424407958984375,0.6476593017578125
1699734117923061200,8.197061279296875,0.049774169921875,-0.6104583740234375,0.6822052001953125
1699734117933101000,8.20710107421875,0.0378875732421875,-0.553131103515625,0.722900390625
1699734117943111200,8.217111083984374,0.02496337890625,-0.5106201171875,0.7513885498046875
1699734117953151000,8.22715087890625,0.01898193359375,-0.477447509765625,0.7894744873046875
1699734117963161000,8.2371611328125,0.0068817138671875,-0.4427032470703125,0.8288116455078125
1699734117973201200,8.247201171875,-0.0175933837890625,-0.401580810546875,0.8566741943359375
1699734117983211000,8.2572109375,-0.0408935546875,-0.3650360107421875,0.9041290283203125
1699734117993251000,8.2672509765625,-0.0445556640625,-0.347259521484375,0.9604949951171875
1699734118003261200,8.27726123046875,-0.0506744384765625,-0.3104400634765625,1.01007080078125
1699734118013271000,8.28727099609375,-0.0395660400390625,-0.2818145751953125,1.0497589111328125
1699734118023311000,8.29731103515625,-0.020172119140625,-0.25238037109375,1.08062744140625
1699734118033321200,8.3073212890625,-0.0166778564453125,-0.2020721435546875,1.0859832763671875
1699734118043361300,8.317361328125,-0.0352630615234375,-0.1387786865234375,1.092437744140625
1699734118053371100,8.32737109375,-0.0594635009765625,-0.07708740234375,1.117889404296875
1699734118063411000,8.337410888671876,-0.1029052734375,-0.0402679443359375,1.1637115478515625
1699734118073421000,8.347421142578124,-0.1798858642578125,-0.002349853515625,1.1968994140625
1699734118083461000,8.357461181640625,-0.2837066650390625,0.0301971435546875,1.191986083984375
1699734118093471000,8.367470947265625,-0.3477020263671875,0.0565185546875,1.1729278564453125
1699734118103511000,8.377510986328126,-0.37298583984375,0.0771942138671875,1.1366119384765625
1699734118113521200,8.387521240234374,-0.4022674560546875,0.083160400390625,1.0825347900390625
1699734118123561200,8.397561279296875,-0.4201812744140625,0.0825958251953125,1.0583343505859375
1699734118133571000,8.407571044921875,-0.4288177490234375,0.0836181640625,1.048370361328125
1699734118143611100,8.417611083984376,-0.4318084716796875,0.0701446533203125,1.0540008544921875
1699734118153621200,8.427621337890624,-0.44610595703125,0.0939788818359375,0.85247802734375
1699734118163661000,8.4376611328125,-0.5024261474609375,0.14056396484375,0.8313140869140625
1699734118173671000,8.4476708984375,-0.554107666015625,0.1374053955078125,0.832611083984375
1699734118183712000,8.4577119140625,-0.636627197265625,0.1531219482421875,0.8060455322265625
1699734118193721000,8.46772119140625,-0.7057037353515625,0.1640625,0.789947509765625
1699734118203762200,8.47776220703125,-0.7462310791015625,0.1929931640625,0.7980194091796875
1699734118213771000,8.48777099609375,-0.8069610595703125,0.2723541259765625,0.739410400390625
1699734118223812000,8.49781201171875,-0.8750457763671875,0.2558441162109375,0.721588134765625
1699734118233821200,8.5078212890625,-0.8983917236328125,0.2491912841796875,0.73443603515625
1699734118243862300,8.5178623046875,-0.9247589111328125,0.2599029541015625,0.6922760009765625
1699734118253871000,8.52787109375,-0.9490966796875,0.2490386962890625,0.6535797119140625
1699734118263912200,8.537912109375,-0.95245361328125,0.246978759765625,0.6339569091796875
1699734118273921000,8.547921142578126,-0.945159912109375,0.2342987060546875,0.63934326171875
1699734118283962000,8.557962158203125,-0.9197540283203125,0.214263916015625,0.6538543701171875
1699734118293972000,8.567971923828125,-0.889556884765625,0.1926422119140625,0.649993896484375
1699734118304012000,8.578011962890624,-0.8915252685546875,0.176116943359375,0.6248016357421875
1699734118314022100,8.588022216796874,-0.8996429443359375,0.158355712890625,0.602386474609375
1699734118324062200,8.598062255859375,-0.9024505615234375,0.14886474609375,0.6028900146484375
1699734118334072000,8.608072021484375,-0.9152374267578125,0.1474609375,0.5890350341796875
1699734118344112000,8.618112060546874,-0.9402008056640625,0.1371002197265625,0.535888671875
1699734118354122200,8.628122314453124,-0.962890625,0.1136932373046875,0.471466064453125
1699734118364162300,8.638162353515625,-0.992889404296875,0.0688018798828125,0.4146881103515625
1699734118374172200,8.648172119140625,-1.0170745849609375,0.0002899169921875,0.35980224609375
1699734118384212000,8.6582119140625,-1.0220794677734375,-0.064697265625,0.3254547119140625
1699734118394222000,8.66822216796875,-1.005157470703125,-0.1103973388671875,0.2817840576171875
1699734118404232000,8.67823193359375,-0.96697998046875,-0.1380157470703125,0.2568359375
1699734118414272000,8.68827197265625,-0.9277496337890625,-0.1463775634765625,0.2600860595703125
1699734118424282000,8.6982822265625,-0.901763916015625,-0.1423187255859375,0.26904296875
1699734118434322200,8.708322265625,-0.8978118896484375,-0.1461944580078125,0.2766876220703125
1699734118444332000,8.71833203125,-0.8994293212890625,-0.150421142578125,0.238067626953125
1699734118454372000,8.7283720703125,-0.89459228515625,-0.1842041015625,0.14337158203125
1699734118464382200,8.73838232421875,-0.871124267578125,-0.2381744384765625,0.07904052734375
1699734118474422000,8.748422119140624,-0.850067138671875,-0.278106689453125,0.032257080078125
1699734118484432000,8.758431884765624,-0.839935302734375,-0.307525634765625,-0.0343475341796875
1699734118494472000,8.768471923828125,-0.81378173828125,-0.3267364501953125,-0.0505218505859375
1699734118504482000,8.77848193359375,-0.7967987060546875,-0.3279876708984375,-0.054534912109375
1699734118514522000,8.788522216796874,-0.802215576171875,-0.3079681396484375,-0.0628814697265625
1699734118524532000,8.798531982421874,-0.8194732666015625,-0.2843017578125,-0.08935546875
1699734118534572000,8.808572021484375,-0.842254638671875,-0.2645263671875,-0.1293792724609375
1699734118544582100,8.81858203125,-0.8755645751953125,-0.2711334228515625,-0.1796722412109375
1699734118554622200,8.828622314453124,-0.908538818359375,-0.2880096435546875,-0.2669830322265625
1699734118564632000,8.838632080078124,-0.9351348876953125,-0.324615478515625,-0.3294677734375
1699734118574672000,8.848671875,-0.9431610107421875,-0.3853302001953125,-0.3701934814453125
1699734118584682000,8.858681884765625,-0.930419921875,-0.4217376708984375,-0.4160003662109375
1699734118594725600,8.8687255859375,-0.896728515625,-0.439178466796875,-0.4575042724609375
1699734118604735500,8.878735595703125,-0.853118896484375,-0.4549407958984375,-0.5086517333984375
1699734118614775600,8.888775634765626,-0.8211822509765625,-0.4774932861328125,-0.5532989501953125
1699734118624785700,8.89878564453125,-0.81158447265625,-0.4895477294921875,-0.5820770263671875
1699734118634825700,8.90882568359375,-0.811981201171875,-0.4661712646484375,-0.6088409423828125
1699734118644835600,8.918835693359375,-0.831329345703125,-0.4559326171875,-0.6330718994140625
1699734118654875400,8.92887548828125,-0.8592681884765625,-0.474700927734375,-0.653167724609375
1699734118664885500,8.938885498046876,-0.863494873046875,-0.482513427734375,-0.6757354736328125
1699734118674925600,8.948925537109375,-0.8387451171875,-0.4941864013671875,-0.7288055419921875
1699734118684935700,8.958935791015625,-0.7811737060546875,-0.51910400390625,-0.762908935546875
1699734118694975500,8.9689755859375,-0.7271270751953125,-0.5653076171875,-0.77984619140625
1699734118704985600,8.978985595703126,-0.6484832763671875,-0.601959228515625,-0.793609619140625
1699734118715026700,8.989026611328125,-0.5777740478515625,-0.60565185546875,-0.817138671875
1699734118725035800,8.999035888671875,-0.513397216796875,-0.65264892578125,-0.8147735595703125
1699734118735076600,9.00907666015625,-0.4372711181640625,-0.674346923828125,-0.7795867919921875
1699734118745085400,9.01908544921875,-0.3875885009765625,-0.63623046875,-0.7607879638671875
1699734118755126500,9.02912646484375,-0.3605499267578125,-0.5760040283203125,-0.741851806640625
1699734118765135600,9.039135498046875,-0.336517333984375,-0.4967803955078125,-0.731475830078125
1699734118775176400,9.049176513671876,-0.3162689208984375,-0.4575042724609375,-0.7233428955078125
1699734118785185500,9.059185546875,-0.27496337890625,-0.4687957763671875,-0.720794677734375
1699734118795195600,9.069195556640626,-0.2189788818359375,-0.524139404296875,-0.748016357421875
1699734118805236500,9.079236572265625,-0.1262054443359375,-0.624847412109375,-0.78802490234375
1699734118815245600,9.08924560546875,-0.03271484375,-0.695770263671875,-0.8057403564453125
1699734118825286700,9.09928662109375,0.054718017578125,-0.7481536865234375,-0.8076934814453125
1699734118835295700,9.109295654296876,0.12799072265625,-0.7785186767578125,-0.78985595703125
1699734118845336600,9.119336669921875,0.1705780029296875,-0.741912841796875,-0.7479095458984375
1699734118855345400,9.129345458984375,0.19537353515625,-0.67193603515625,-0.744415283203125
1699734118865386500,9.139386474609376,0.2040557861328125,-0.604888916015625,-0.7444000244140625
1699734118875395600,9.1493955078125,0.2296295166015625,-0.55419921875,-0.6920623779296875
1699734118885436400,9.1594365234375,0.2735595703125,-0.54046630859375,-0.65887451171875
1699734118895445500,9.169445556640625,0.3441314697265625,-0.591461181640625,-0.6204986572265625
1699734118905486600,9.179486572265626,0.435211181640625,-0.6619720458984375,-0.5562591552734375
1699734118915496700,9.18949658203125,0.5178680419921875,-0.72174072265625,-0.506988525390625
1699734118925536500,9.19953662109375,0.5758209228515625,-0.7625732421875,-0.4989776611328125
1699734118935546600,9.209546630859375,0.6141357421875,-0.7723541259765625,-0.4819183349609375
1699734118945586700,9.219586669921876,0.6303558349609375,-0.765594482421875,-0.4427032470703125
1699734118955596800,9.2295966796875,0.6114044189453125,-0.725677490234375,-0.4043426513671875
1699734118965636600,9.23963671875,0.566986083984375,-0.688232421875,-0.3913116455078125
1699734118975646500,9.249646484375,0.523101806640625,-0.6587982177734375,-0.385589599609375
1699734118985686500,9.2596865234375,0.48382568359375,-0.634552001953125,-0.3807830810546875
1699734118995696600,9.269696533203126,0.4824371337890625,-0.6353759765625,-0.3764801025390625
1699734119005736700,9.27973681640625,0.4994964599609375,-0.6644439697265625,-0.3422393798828125
1699734119015746600,9.28974658203125,0.5283203125,-0.740234375,-0.262451171875
1699734119025786600,9.29978662109375,0.5956268310546875,-0.83392333984375,-0.2127838134765625
1699734119035796700,9.309796630859376,0.6600799560546875,-0.878875732421875,-0.198974609375
1699734119045836800,9.3198369140625,0.660980224609375,-0.87030029296875,-0.1888885498046875
1699734119055846700,9.3298466796875,0.610504150390625,-0.855987548828125,-0.20654296875
1699734119065886500,9.339886474609376,0.5435638427734375,-0.8298492431640625,-0.2138824462890625
1699734119075896600,9.349896484375,0.475433349609375,-0.793548583984375,-0.1919708251953125
1699734119085936600,9.3599365234375,0.4343719482421875,-0.785736083984375,-0.1553955078125
1699734119095946500,9.369946533203125,0.4381866455078125,-0.7989959716796875,-0.107666015625
1699734119105986600,9.379986572265626,0.4621429443359375,-0.803009033203125,-0.06390380859375
1699734119115996700,9.38999658203125,0.51666259765625,-0.8520965576171875,-0.02374267578125
1699734119126036700,9.40003662109375,0.565032958984375,-0.904632568359375,0.023345947265625
1699734119136046600,9.410046630859375,0.5790863037109375,-0.923614501953125,0.069854736328125
1699734119146086700,9.420086669921876,0.5811004638671875,-0.9211883544921875,0.0816802978515625
1699734119156096800,9.4300966796875,0.544921875,-0.9040374755859375,0.0847625732421875
1699734119166136600,9.440136474609375,0.4976806640625,-0.88812255859375,0.0992584228515625
1699734119176146400,9.450146484375,0.462188720703125,-0.8745574951171875,0.114471435546875
1699734119186156500,9.460156494140625,0.4562530517578125,-0.86578369140625,0.1338653564453125
1699734119196196600,9.470196533203126,0.4766387939453125,-0.86212158203125,0.1606903076171875
1699734119206206500,9.48020654296875,0.4846343994140625,-0.85003662109375,0.19964599609375
1699734119216246500,9.49024658203125,0.4736328125,-0.8310546875,0.2409820556640625
1699734119226256600,9.500256591796875,0.4518585205078125,-0.82769775390625,0.27606201171875
1699734119236296700,9.510296630859376,0.41558837890625,-0.8273468017578125,0.31317138671875
1699734119246306600,9.520306640625,0.37451171875,-0.8261871337890625,0.33349609375
1699734119256346600,9.5303466796875,0.35247802734375,-0.8286590576171875,0.34014892578125
1699734119266356700,9.540356689453125,0.3762359619140625,-0.82623291015625,0.351043701171875
1699734119276396500,9.550396484375,0.4075775146484375,-0.8058013916015625,0.34466552734375
1699734119286406400,9.560406494140626,0.393951416015625,-0.7931060791015625,0.3631439208984375
1699734119296446500,9.570446533203125,0.357147216796875,-0.80242919921875,0.424285888671875
1699734119306456600,9.58045654296875,0.309112548828125,-0.8076324462890625,0.49951171875
1699734119316496600,9.59049658203125,0.2671661376953125,-0.8197174072265625,0.548736572265625
1699734119326506500,9.600506591796876,0.242523193359375,-0.8229827880859375,0.5488128662109375
1699734119336547600,9.610547607421875,0.2183990478515625,-0.8160400390625,0.523895263671875
1699734119346556700,9.620556640625,0.205780029296875,-0.8016204833984375,0.529144287109375
1699734119356597800,9.63059765625,0.187896728515625,-0.7878570556640625,0.5211944580078125
1699734119366606600,9.640606689453126,0.1613616943359375,-0.7932281494140625,0.50982666015625
1699734119376647700,9.650647705078125,0.154510498046875,-0.8044586181640625,0.5352935791015625
1699734119386656500,9.660656494140625,0.179534912109375,-0.804901123046875,0.569732666015625
1699734119396697600,9.670697509765626,0.170257568359375,-0.7857666015625,0.5743560791015625
1699734119406706700,9.680706787109376,0.0857696533203125,-0.76055908203125,0.5882110595703125
1699734119416747500,9.69074755859375,0.006866455078125,-0.7400360107421875,0.664581298828125
1699734119426757600,9.700757568359375,-0.0554656982421875,-0.714080810546875,0.718658447265625
1699734119436797700,9.710797607421876,-0.1138916015625,-0.6981201171875,0.7070465087890625
1699734119446807600,9.7208076171875,-0.1714019775390625,-0.6992645263671875,0.68511962890625
1699734119456847600,9.73084765625,-0.23541259765625,-0.6930389404296875,0.6737823486328125
1699734119466857700,9.740857666015625,-0.274627685546875,-0.674530029296875,0.680419921875
1699734119476897500,9.7508974609375,-0.3112335205078125,-0.6506195068359375,0.6782073974609375
1699734119486907400,9.760907470703126,-0.364013671875,-0.633758544921875,0.67633056640625
1699734119496947500,9.770947509765625,-0.416015625,-0.6270599365234375,0.668975830078125
1699734119506957600,9.78095751953125,-0.48291015625,-0.6123809814453125,0.6324310302734375
1699734119516997600,9.79099755859375,-0.537811279296875,-0.6086578369140625,0.6125030517578125
1699734119527007500,9.801007568359376,-0.563934326171875,-0.6042327880859375,0.6071624755859375
1699734119537047600,9.811047607421875,-0.5877838134765625,-0.598541259765625,0.582275390625
1699734119547057700,9.8210576171875,-0.6152496337890625,-0.5927886962890625,0.54974365234375
1699734119557097700,9.83109765625,-0.6302490234375,-0.5820770263671875,0.53009033203125
1699734119567107600,9.841107666015626,-0.64990234375,-0.55718994140625,0.5281982421875
1699734119577147400,9.8511474609375,-0.671783447265625,-0.531158447265625,0.5013427734375
1699734119587157500,9.861157470703125,-0.6912841796875,-0.5101165771484375,0.4558563232421875
1699734119597177300,9.87117724609375,-0.726654052734375,-0.4944610595703125,0.41143798828125
1699734119607217400,9.881217529296874,-0.7791748046875,-0.4843597412109375,0.363128662109375
1699734119617227300,9.891227294921874,-0.81072998046875,-0.48193359375,0.330718994140625
1699734119627267300,9.901267333984375,-0.806976318359375,-0.480316162109375,0.3160400390625
1699734119637277400,9.91127734375,-0.7949981689453125,-0.467559814453125,0.2958984375
1699734119647317500,9.9213173828125,-0.7888641357421875,-0.430511474609375,0.2708282470703125
1699734119657327400,9.931327392578124,-0.7907562255859375,-0.387481689453125,0.2599945068359375
1699734119667367200,9.9413671875,-0.7937469482421875,-0.3631134033203125,0.2580718994140625
1699734119677377300,9.951377197265625,-0.80706787109375,-0.3178558349609375,0.2524261474609375
1699734119687417300,9.961417236328124,-0.8404541015625,-0.27490234375,0.2349700927734375
1699734119697427200,9.97142724609375,-0.875732421875,-0.2530670166015625,0.2208099365234375
1699734119707467300,9.98146728515625,-0.8990631103515625,-0.23095703125,0.191436767578125
1699734119717477400,9.991477294921875,-0.906219482421875,-0.20654296875,0.1722412109375
1699734119727517400,10.001517333984374,-0.9010009765625,-0.1627655029296875,0.1549224853515625
1699734119737527300,10.01152734375,-0.9306182861328125,-0.169342041015625,0.11700439453125
1699734119747567400,10.0215673828125,-0.9759979248046875,-0.16217041015625,0.12445068359375
1699734119757577500,10.031577392578125,-1.0164794921875,-0.1482391357421875,0.12969970703125
1699734119767617300,10.0416171875,-1.0386962890625,-0.13580322265625,0.1167144775390625
1699734119777627100,10.051627197265624,-1.033050537109375,-0.105377197265625,0.1008758544921875
1699734119787667200,10.061667236328125,-1.0240020751953125,-0.0884857177734375,0.04376220703125
1699734119797677300,10.07167724609375,-1.054901123046875,-0.080596923828125,-0.038848876953125
1699734119807717400,10.08171728515625,-1.1425018310546875,-0.0507659912109375,-0.049407958984375
1699734119817727200,10.091727294921874,-1.1732177734375,-0.0252227783203125,0.05108642578125
1699734119827767300,10.101767333984375,-1.143310546875,-0.01171875,0.121368408203125
1699734119837777400,10.11177734375,-1.09967041015625,0.0232391357421875,0.0716705322265625
1699734119847818500,10.121818603515624,-1.0859527587890625,0.03472900390625,0.030548095703125
1699734119857827000,10.1318271484375,-1.11944580078125,0.019989013671875,0.0388031005859375
1699734119867868200,10.1418681640625,-1.122894287109375,-0.0053863525390625,0.0148162841796875
1699734119877877200,10.151877197265625,-1.1394195556640625,-0.0255126953125,-0.0195465087890625
1699734119887918300,10.16191845703125,-1.1666107177734375,-0.0387115478515625,-0.0156707763671875
1699734119897927200,10.17192724609375,-1.1672515869140625,-0.0523834228515625,-0.0290679931640625
1699734119907968300,10.18196826171875,-1.1634979248046875,-0.071044921875,-0.0342254638671875
1699734119917977300,10.191977294921875,-1.1344146728515625,-0.07635498046875,-0.0071868896484375
1699734119928018400,10.202018310546874,-1.045196533203125,-0.081787109375,0.0186309814453125
1699734119938027300,10.21202734375,-0.9181671142578125,-0.0953521728515625,0.0554046630859375
1699734119948068400,10.222068359375,-0.8486480712890625,-0.1047515869140625,0.0958404541015625
1699734119958078500,10.232078369140625,-0.9192047119140625,-0.1508636474609375,0.07342529296875
1699734119968118300,10.2421181640625,-1.0733642578125,-0.22711181640625,-0.02703857421875
1699734119978128100,10.252128173828124,-1.1489410400390625,-0.32073974609375,-0.162994384765625
1699734119988137200,10.26213720703125,-1.0952301025390625,-0.4302520751953125,-0.240478515625
1699734119998178300,10.27217822265625,-1.0700836181640625,-0.482330322265625,-0.2461090087890625
1699734120008187400,10.2821875,-1.1247711181640625,-0.503875732421875,-0.1962890625
1699734120018228200,10.292228271484374,-1.1479644775390625,-0.5083770751953125,-0.12371826171875
1699734120028237300,10.3022373046875,-1.1517486572265625,-0.5063018798828125,-0.0583953857421875
1699734120038278400,10.3122783203125,-1.1519012451171875,-0.5038909912109375,-0.0369415283203125
1699734120048287500,10.32228759765625,-1.1332855224609375,-0.4930877685546875,-0.0735015869140625
1699734120058328300,10.332328369140624,-1.11700439453125,-0.4958343505859375,-0.1123504638671875
1699734120068338400,10.34233837890625,-1.108184814453125,-0.50640869140625,-0.1074371337890625
1699734120078378200,10.352378173828125,-1.1175994873046875,-0.5060882568359375,-0.061126708984375
1699734120088388000,10.36238818359375,-1.14996337890625,-0.49468994140625,0.0211944580078125
1699734120098428200,10.37242822265625,-1.1689453125,-0.47662353515625,0.1139984130859375
1699734120108438300,10.382438232421874,-1.1560516357421875,-0.4513702392578125,0.178955078125
1699734120118478300,10.392478271484375,-1.130584716796875,-0.4229583740234375,0.209136962890625
1699734120128488200,10.40248828125,-1.1180572509765625,-0.40203857421875,0.2247314453125
1699734120138528300,10.4125283203125,-1.11376953125,-0.39654541015625,0.2308349609375
1699734120148538400,10.422538330078124,-1.115509033203125,-0.4069671630859375,0.2425384521484375
1699734120158578400,10.432578369140625,-1.1044921875,-0.433929443359375,0.2448272705078125
1699734120168588300,10.44258837890625,-1.0828857421875,-0.4613189697265625,0.227081298828125
1699734120178628000,10.452628173828124,-1.0953216552734375,-0.4801177978515625,0.2215423583984375
1699734120188638200,10.46263818359375,-1.0945587158203125,-0.5007781982421875,0.2137451171875
1699734120198678300,10.47267822265625,-1.0842437744140625,-0.53515625,0.1931304931640625
1699734120208688400,10.4826884765625,-1.0906219482421875,-0.57659912109375,0.18359375
1699734120218728200,10.492728271484374,-1.0976409912109375,-0.59686279296875,0.175537109375
1699734120228738300,10.50273828125,-1.0916595458984375,-0.6075439453125,0.1651458740234375
1699734120238778400,10.5127783203125,-1.0553436279296875,-0.6192474365234375,0.158416748046875
1699734120248788500,10.52278857421875,-0.9940185546875,-0.64501953125,0.14508056640625
1699734120258828300,10.532828369140624,-0.9394989013671875,-0.6589813232421875,0.153045654296875
1699734120268838400,10.54283837890625,-0.8867340087890625,-0.6446990966796875,0.1584930419921875
1699734120278878200,10.552878173828125,-0.8453826904296875,-0.6495513916015625,0.1622314453125
1699734120288888300,10.562888427734375,-0.82940673828125,-0.663055419921875,0.1930999755859375
1699734120298928400,10.572928466796874,-0.8099365234375,-0.6995697021484375,0.199493408203125
1699734120308938200,10.582938232421874,-0.76641845703125,-0.7145538330078125,0.197601318359375
1699734120318978300,10.592978271484375,-0.7052001953125,-0.7118072509765625,0.18572998046875
1699734120328988400,10.602988525390625,-0.6216583251953125,-0.7185516357421875,0.100616455078125
1699734120339028500,10.613028564453124,-0.536834716796875,-0.7232666015625,0.00067138671875
1699734120349038300,10.623038330078124,-0.442047119140625,-0.7402496337890625,-0.0931549072265625
1699734120359079400,10.633079345703125,-0.3430938720703125,-0.715301513671875,-0.134918212890625
1699734120369088500,10.643088623046875,-0.2974395751953125,-0.751922607421875,-0.039520263671875
1699734120379129300,10.65312939453125,-0.2573394775390625,-0.8920745849609375,0.0255584716796875
1699734120389138200,10.66313818359375,-0.23187255859375,-0.819000244140625,0.0137939453125
1699734120399148300,10.673148193359374,-0.2298126220703125,-0.7464141845703125,0.013275146484375
1699734120409188400,10.683188232421875,-0.1754150390625,-0.7337493896484375,0.03955078125
1699734120419198200,10.6931982421875,-0.10687255859375,-0.6766510009765625,0.0333251953125
1699734120429238300,10.70323828125,-0.073455810546875,-0.655853271484375,-0.073638916015625
1699734120439248400,10.713248291015624,0.027374267578125,-0.6695098876953125,-0.033203125
1699734120449288400,10.723288330078125,0.197601318359375,-0.6250762939453125,-0.0186920166015625
1699734120459298300,10.73329833984375,0.2843170166015625,-0.6284637451171875,-0.053375244140625
1699734120469339400,10.74333935546875,0.37445068359375,-0.6309814453125,-0.0877227783203125
1699734120479348500,10.753348388671874,0.4178619384765625,-0.5891571044921875,-0.0741119384765625
1699734120489389300,10.763389404296875,0.42645263671875,-0.57318115234375,-0.052581787109375
1699734120499398100,10.773398193359375,0.425506591796875,-0.5451812744140625,-0.06671142578125
1699734120509439200,10.783439208984374,0.41839599609375,-0.4990081787109375,-0.0760345458984375
1699734120519448300,10.7934482421875,0.4084625244140625,-0.4231719970703125,-0.0936126708984375
1699734120529489200,10.8034892578125,0.386016845703125,-0.3726043701171875,-0.1248016357421875
1699734120539498200,10.813498291015625,0.428985595703125,-0.364349365234375,-0.1091461181640625
1699734120549539300,10.823539306640624,0.533935546875,-0.3341827392578125,-0.0908660888671875
1699734120559548400,10.83354833984375,0.5842437744140625,-0.25537109375,-0.09942626953125
1699734120569589500,10.843589599609375,0.6058807373046875,-0.162322998046875,-0.0819091796875
1699734120579599400,10.853599365234375,0.641754150390625,-0.085357666015625,-0.0837554931640625
1699734120589639200,10.86363916015625,0.6449127197265625,-0.0159759521484375,-0.1038665771484375
1699734120599637500,10.873637451171875,0.6104278564453125,0.05511474609375,-0.1094207763671875
1699734120609677600,10.883677490234374,0.59307861328125,0.126129150390625,-0.1298065185546875
1699734120619687700,10.893687744140625,0.6162261962890625,0.197662353515625,-0.1732177734375
1699734120629727500,10.9037275390625,0.6661376953125,0.2675933837890625,-0.2308807373046875
1699734120639737600,10.913737548828125,0.7786407470703125,0.28961181640625,-0.225311279296875
1699734120649777700,10.923777587890624,0.9107818603515625,0.2686920166015625,-0.212799072265625
1699734120659787800,10.933787841796875,0.978424072265625,0.2844390869140625,-0.1795196533203125
1699734120669827600,10.94382763671875,1.0150299072265625,0.3246917724609375,-0.1349029541015625
1699734120679837400,10.95383740234375,1.0214385986328125,0.3532867431640625,-0.13067626953125
1699734120689877500,10.96387744140625,0.99468994140625,0.37200927734375,-0.1384429931640625
1699734120699887600,10.9738876953125,0.9561614990234375,0.401214599609375,-0.150543212890625
1699734120709927700,10.983927734375,0.892608642578125,0.4496917724609375,-0.161590576171875
1699734120719937500,10.9939375,0.8127288818359375,0.5081939697265625,-0.1746826171875
1699734120729977600,11.0039775390625,0.755584716796875,0.5668487548828125,-0.186737060546875
1699734120739987700,11.01398779296875,0.7411041259765625,0.60626220703125,-0.202056884765625
1699734120750027800,11.02402783203125,0.8022003173828125,0.6171112060546875,-0.1807861328125
1699734120760037600,11.03403759765625,0.85528564453125,0.6611480712890625,-0.1650848388671875
1699734120770077400,11.044077392578124,0.88360595703125,0.69586181640625,-0.17608642578125
1699734120780087600,11.054087646484374,0.911376953125,0.70513916015625,-0.180694580078125
1699734120790097400,11.064097412109374,0.8834228515625,0.7342529296875,-0.1705780029296875
1699734120800137500,11.074137451171875,0.810546875,0.7519683837890625,-0.1881256103515625
1699734120810147600,11.084147705078125,0.75634765625,0.7456817626953125,-0.2037200927734375
1699734120820187600,11.094187744140624,0.6850128173828125,0.7642059326171875,-0.21844482421875
1699734120830197500,11.104197509765624,0.6184234619140625,0.7893829345703125,-0.2354736328125
1699734120840237600,11.114237548828125,0.560943603515625,0.8061981201171875,-0.2453155517578125
1699734120850247700,11.12424755859375,0.5182952880859375,0.8184661865234375,-0.247894287109375
1699734120860287700,11.134287841796874,0.496612548828125,0.8168487548828125,-0.22418212890625
1699734120870297600,11.144297607421874,0.4808197021484375,0.8269500732421875,-0.194305419921875
1699734120880337400,11.15433740234375,0.4608001708984375,0.8493499755859375,-0.1696014404296875
1699734120890347500,11.164347412109375,0.4752655029296875,0.8991851806640625,-0.1101226806640625
1699734120900387600,11.1743876953125,0.442657470703125,0.9712066650390625,-0.1258392333984375
1699734120910397400,11.1843974609375,0.38555908203125,1.04376220703125,-0.21087646484375
1699734120920437500,11.1944375,0.341400146484375,1.1104888916015625,-0.2227935791015625
1699734120930447600,11.204447509765625,0.32763671875,1.1311798095703125,-0.2048797607421875
1699734120940487700,11.21448779296875,0.355010986328125,1.1173095703125,-0.1758880615234375
1699734120950497500,11.22449755859375,0.37030029296875,1.0758209228515625,-0.1408843994140625
1699734120960537300,11.234537353515625,0.37750244140625,1.030731201171875,-0.109710693359375
1699734120970547500,11.24454736328125,0.3844146728515625,1.022674560546875,-0.092254638671875
1699734120980588500,11.254588623046875,0.38177490234375,1.038299560546875,-0.10748291015625
1699734120990597400,11.264597412109374,0.3647003173828125,1.065826416015625,-0.1228485107421875
1699734121000638500,11.274638427734375,0.32861328125,1.0941619873046875,-0.1354217529296875
1699734121010647600,11.2846474609375,0.29754638671875,1.1151123046875,-0.14825439453125
1699734121020688600,11.294688720703125,0.2781982421875,1.1289520263671875,-0.136932373046875
1699734121030697500,11.304697509765624,0.284637451171875,1.1451416015625,-0.1150970458984375
1699734121040738600,11.314738525390625,0.3148956298828125,1.1429443359375,-0.09942626953125
1699734121050747600,11.32474755859375,0.35296630859375,1.136199951171875,-0.0624847412109375
1699734121060788700,11.334788818359375,0.378143310546875,1.14483642578125,-0.055633544921875
1699734121070797600,11.344797607421874,0.38153076171875,1.1471099853515625,-0.061920166015625
1699734121080838400,11.35483837890625,0.3572540283203125,1.1421051025390625,-0.06707763671875
1699734121090848500,11.3648486328125,0.3311004638671875,1.130279541015625,-0.0734405517578125
1699734121100888600,11.374888671875,0.3192901611328125,1.1326446533203125,-0.077911376953125
1699734121110898400,11.3848984375,0.3253021240234375,1.1506500244140625,-0.0782318115234375
1699734121120938500,11.3949384765625,0.3201751708984375,1.164398193359375,-0.073577880859375
1699734121130948600,11.404948486328125,0.3147735595703125,1.1727142333984375,-0.0745391845703125
1699734121140988700,11.41498876953125,0.3239593505859375,1.1708984375,-0.0830078125
1699734121150998500,11.42499853515625,0.3289642333984375,1.1647796630859375,-0.0881805419921875
1699734121161038600,11.43503857421875,0.350830078125,1.15472412109375,-0.088043212890625
1699734121171048700,11.445048583984375,0.38555908203125,1.136749267578125,-0.0835418701171875
1699734121181088500,11.455088623046874,0.4083709716796875,1.1011810302734375,-0.087493896484375
1699734121191098400,11.465098388671874,0.4394989013671875,1.068145751953125,-0.09393310546875
1699734121201108500,11.4751083984375,0.4597625732421875,1.044403076171875,-0.0947113037109375
1699734121211148500,11.4851484375,0.4591522216796875,1.0484466552734375,-0.131256103515625
1699734121221158400,11.495158447265625,0.4653472900390625,1.0642242431640625,-0.1748809814453125
1699734121231198500,11.505198486328124,0.480194091796875,1.0850677490234375,-0.2228240966796875
1699734121241208600,11.51520849609375,0.51678466796875,1.0942230224609375,-0.2910308837890625
1699734121251248600,11.52524853515625,0.5897369384765625,1.0806427001953125,-0.348480224609375
1699734121261258500,11.535258544921875,0.666534423828125,1.050048828125,-0.3618621826171875
1699734121271298600,11.545298583984374,0.70965576171875,1.01043701171875,-0.4058990478515625
1699734121281308700,11.55530859375,0.7466888427734375,0.9801788330078125,-0.4284515380859375
1699734121291348500,11.565348388671875,0.7932891845703125,0.97174072265625,-0.428314208984375
1699734121301358300,11.5753583984375,0.8494720458984375,0.972259521484375,-0.46759033203125
1699734121311398400,11.5853984375,0.874603271484375,0.9506988525390625,-0.4881439208984375
1699734121321408500,11.595408447265624,0.8946380615234375,0.92138671875,-0.50079345703125
1699734121331448600,11.605448486328125,0.9166107177734375,0.878204345703125,-0.5466461181640625
1699734121341458400,11.61545849609375,0.913238525390625,0.853057861328125,-0.6446990966796875
1699734121351498500,11.62549853515625,0.9336395263671875,0.8457794189453125,-0.660491943359375
1699734121361508600,11.635508544921874,0.9463653564453125,0.7779388427734375,-0.5910186767578125
1699734121371548700,11.645548583984375,0.9674835205078125,0.6753082275390625,-0.605865478515625
1699734121381558800,11.655558837890625,1.0081329345703125,0.5955047607421875,-0.644317626953125
1699734121391598300,11.665598388671874,1.039215087890625,0.53253173828125,-0.66180419921875
1699734121401608400,11.6756083984375,1.0770263671875,0.4570159912109375,-0.666046142578125
1699734121411648500,11.6856484375,1.0821380615234375,0.3557281494140625,-0.6697845458984375
1699734121421658600,11.69565869140625,1.07171630859375,0.3002471923828125,-0.6737518310546875
1699734121431698700,11.70569873046875,1.00970458984375,0.278839111328125,-0.5959625244140625
1699734121441708500,11.71570849609375,0.9445343017578125,0.1947479248046875,-0.5487213134765625
1699734121451748600,11.72574853515625,0.960693359375,0.1438140869140625,-0.57220458984375
1699734121461758700,11.7357587890625,0.966156005859375,0.1065216064453125,-0.577362060546875
1699734121471798800,11.745798828125,0.9700469970703125,0.06036376953125,-0.5704803466796875
1699734121481808600,11.75580859375,0.9374542236328125,-0.032135009765625,-0.550506591796875
1699734121491848400,11.765848388671875,0.8955078125,-0.1663818359375,-0.466552734375
1699734121501858600,11.775858642578125,0.8160858154296875,-0.2317657470703125,-0.356292724609375
1699734121511899400,11.7858994140625,0.6962738037109375,-0.244842529296875,-0.30224609375
1699734121521908500,11.795908447265624,0.5996856689453125,-0.2633819580078125,-0.24957275390625
1699734121531949600,11.805949462890625,0.50927734375,-0.2516937255859375,-0.2525177001953125
1699734121541958700,11.815958740234375,0.422637939453125,-0.2744293212890625,-0.2535400390625
1699734121551999500,11.82599951171875,0.389373779296875,-0.335113525390625,-0.2748260498046875
1699734121562008600,11.836008544921874,0.3480224609375,-0.41558837890625,-0.26556396484375
1699734121572049700,11.846049560546875,0.2852325439453125,-0.472259521484375,-0.245849609375
1699734121582058800,11.856058837890625,0.2284698486328125,-0.5061187744140625,-0.226348876953125
1699734121592117200,11.8661171875,0.167572021484375,-0.5405426025390625,-0.16217041015625
1699734121602127400,11.87612744140625,0.0867156982421875,-0.5620880126953125,-0.1135406494140625
1699734121612136200,11.88613623046875,0.01123046875,-0.56884765625,-0.075592041015625
1699734121622177000,11.896177001953125,-0.0318450927734375,-0.561553955078125,-0.04229736328125
1699734121632186000,11.90618603515625,-0.0468902587890625,-0.580352783203125,-0.0089874267578125
1699734121642227200,11.916227294921875,-0.06878662109375,-0.6006927490234375,0.0153045654296875
1699734121652236300,11.926236328125,-0.0931396484375,-0.58319091796875,0.0356903076171875
1699734121662277000,11.936277099609375,-0.1204833984375,-0.5545806884765625,0.1106414794921875
1699734121672286200,11.9462861328125,-0.180908203125,-0.5213165283203125,0.2084503173828125
1699734121682327300,11.956327392578125,-0.2660369873046875,-0.4806976318359375,0.3022308349609375
1699734121692336400,11.96633642578125,-0.352203369140625,-0.4676666259765625,0.3848419189453125
1699734121702377200,11.976377197265625,-0.4058685302734375,-0.478057861328125,0.4453125
1699734121712387300,11.98638720703125,-0.4504547119140625,-0.4432220458984375,0.4719696044921875
1699734121722427100,11.99642724609375,-0.48846435546875,-0.417938232421875,0.4477996826171875
1699734121732437200,12.006437255859375,-0.486663818359375,-0.40838623046875,0.4034576416015625
1699734121742477000,12.01647705078125,-0.4741668701171875,-0.3872833251953125,0.3766326904296875
1699734121752487200,12.026487060546875,-0.5079345703125,-0.376739501953125,0.371063232421875
1699734121762527200,12.03652734375,-0.56878662109375,-0.361541748046875,0.3726043701171875
1699734121772537300,12.046537353515625,-0.6546783447265625,-0.3065338134765625,0.3785858154296875
1699734121782577200,12.0565771484375,-0.747100830078125,-0.2674560546875,0.3927764892578125
1699734121792587300,12.066587158203125,-0.7888946533203125,-0.2500152587890625,0.3954925537109375
1699734121802627300,12.07662744140625,-0.80438232421875,-0.2264862060546875,0.3678131103515625
1699734121812637400,12.086637451171875,-0.8059539794921875,-0.20562744140625,0.344573974609375
1699734121822677200,12.09667724609375,-0.8305816650390625,-0.139739990234375,0.350982666015625
1699734121832687000,12.10668701171875,-0.8417205810546875,-0.0752410888671875,0.3617706298828125
1699734121842727200,12.11672705078125,-0.793365478515625,-0.0481414794921875,0.3290557861328125
1699734121852737300,12.1267373046875,-0.7516326904296875,-0.00262451171875,0.2637481689453125
1699734121862777300,12.13677734375,-0.795135498046875,0.05328369140625,0.1705169677734375
1699734121872787200,12.146787109375,-0.9403076171875,0.0966339111328125,0.0982666015625
1699734121882827300,12.1568271484375,-1.0701446533203125,0.13934326171875,0.0996551513671875
1699734121892837400,12.16683740234375,-1.065887451171875,0.173370361328125,0.1697845458984375
1699734121902877400,12.17687744140625,-1.063751220703125,0.175445556640625,0.2139892578125
1699734121912887300,12.18688720703125,-1.0793304443359375,0.17889404296875,0.218109130859375
1699734121922927000,12.196927001953124,-1.0336761474609375,0.2274627685546875,0.212982177734375
1699734121932937200,12.206937255859375,-0.9852294921875,0.2537689208984375,0.217559814453125
1699734121942977300,12.216977294921875,-0.9524078369140625,0.25250244140625,0.2173614501953125
1699734121952987100,12.226987060546875,-0.9166259765625,0.27020263671875,0.203399658203125
1699734121963027200,12.237027099609374,-0.903594970703125,0.2879638671875,0.1821746826171875
1699734121973037300,12.247037353515625,-0.9073638916015625,0.2966766357421875,0.1690216064453125
1699734121983077400,12.257077392578125,-0.9455108642578125,0.31353759765625,0.1657562255859375
1699734121993087200,12.267087158203125,-0.99664306640625,0.3288116455078125,0.19183349609375
1699734122003127300,12.277127197265624,-1.015106201171875,0.338623046875,0.2338714599609375
1699734122013137200,12.28713720703125,-1.0256195068359375,0.3432464599609375,0.261077880859375
1699734122023147000,12.29714697265625,-1.0230560302734375,0.33135986328125,0.273162841796875
1699734122033187000,12.30718701171875,-1.00830078125,0.311309814453125,0.25872802734375
1699734122043197200,12.317197265625,-1.014923095703125,0.28863525390625,0.2423095703125
1699734122053237200,12.3272373046875,-1.0502471923828125,0.258514404296875,0.2516937255859375
1699734122063247000,12.3372470703125,-1.120086669921875,0.2193145751953125,0.29327392578125
1699734122073287200,12.347287109375,-1.216217041015625,0.1804962158203125,0.333404541015625
1699734122083297300,12.35729736328125,-1.2913818359375,0.144622802734375,0.293548583984375
1699734122093337300,12.36733740234375,-1.373260498046875,0.0959930419921875,0.252044677734375
1699734122103347200,12.37734716796875,-1.4431304931640625,0.0579376220703125,0.2457275390625
1699734122113387000,12.387386962890625,-1.4726715087890625,0.040435791015625,0.2541351318359375
1699734122123397000,12.397397216796875,-1.49261474609375,0.031341552734375,0.260009765625
1699734122133438200,12.407438232421875,-1.512725830078125,0.0407867431640625,0.243133544921875
1699734122143447000,12.417447021484374,-1.5323486328125,0.086761474609375,0.2386474609375
1699734122153488100,12.427488037109375,-1.5286865234375,0.1345977783203125,0.26861572265625
1699734122163497200,12.437497314453125,-1.498138427734375,0.1814727783203125,0.2874755859375
1699734122173538300,12.447538330078125,-1.4696197509765625,0.2177734375,0.291412353515625
1699734122183547100,12.457547119140624,-1.438385009765625,0.2314300537109375,0.2907562255859375
1699734122193588200,12.467588134765625,-1.391998291015625,0.22845458984375,0.2811126708984375
1699734122203597300,12.477597412109375,-1.327484130859375,0.2157745361328125,0.274169921875
1699734122213638400,12.487638427734375,-1.2621002197265625,0.2066497802734375,0.277801513671875
1699734122223648300,12.497648193359375,-1.1941070556640625,0.1917266845703125,0.2443084716796875
1699734122233688000,12.50768798828125,-1.1477508544921875,0.143798828125,0.16259765625
1699734122243698200,12.5176982421875,-1.14508056640625,0.0618896484375,0.1493072509765625
1699734122253738200,12.52773828125,-1.1069793701171875,-0.001190185546875,0.190826416015625
1699734122263748000,12.537748046875,-1.044219970703125,-0.051116943359375,0.1982574462890625
1699734122273788200,12.5477880859375,-0.98675537109375,-0.0981597900390625,0.1886749267578125
1699734122283798300,12.55779833984375,-0.93310546875,-0.1371917724609375,0.2125701904296875
1699734122293838300,12.56783837890625,-0.8783416748046875,-0.169677734375,0.2371063232421875
1699734122303848200,12.57784814453125,-0.81988525390625,-0.1981353759765625,0.228363037109375
1699734122313888300,12.58788818359375,-0.7556915283203125,-0.2246856689453125,0.1591644287109375
1699734122323898400,12.5978984375,-0.6973114013671875,-0.2641143798828125,0.06689453125
1699734122333938200,12.607938232421875,-0.65301513671875,-0.2971954345703125,0.0427093505859375
1699734122343948000,12.617947998046875,-0.58447265625,-0.335784912109375,0.083648681640625
1699734122353988000,12.627988037109375,-0.5028228759765625,-0.3784027099609375,0.138885498046875
1699734122363998200,12.637998291015625,-0.4480743408203125,-0.398223876953125,0.199615478515625
1699734122374038300,12.648038330078125,-0.3936614990234375,-0.4173736572265625,0.2331085205078125
1699734122384048000,12.658048095703125,-0.348876953125,-0.4390411376953125,0.219329833984375
1699734122394088200,12.668088134765625,-0.3423919677734375,-0.454376220703125,0.2027435302734375
1699734122404098300,12.678098388671875,-0.3477325439453125,-0.4638214111328125,0.169036865234375
1699734122414138400,12.688138427734375,-0.342559814453125,-0.49566650390625,0.1002197265625
1699734122424148200,12.698148193359375,-0.3466644287109375,-0.555023193359375,0.060333251953125
1699734122434158300,12.708158447265625,-0.3335113525390625,-0.600067138671875,0.051727294921875
1699734122444198100,12.7181982421875,-0.299896240234375,-0.535980224609375,0.0268096923828125
1699734122454208300,12.728208251953125,-0.2478790283203125,-0.563873291015625,-0.0791778564453125
1699734122464248000,12.738248046875,-0.234130859375,-0.7262420654296875,-0.11932373046875
1699734122474258200,12.748258056640625,-0.27496337890625,-0.843963623046875,0.0277252197265625
1699734122484298200,12.75829833984375,-0.2218017578125,-0.88507080078125,0.066802978515625
1699734122494308400,12.768308349609375,-0.155059814453125,-0.8800506591796875,-0.005462646484375
1699734122504348200,12.77834814453125,-0.1625518798828125,-0.8563690185546875,-0.0469818115234375
1699734122514358300,12.788358154296875,-0.1430206298828125,-0.8676300048828125,-0.0983428955078125
1699734122524398300,12.7983984375,-0.125946044921875,-0.9215240478515625,-0.1380157470703125
1699734122534408400,12.808408447265625,-0.128509521484375,-0.968414306640625,-0.1380615234375
1699734122544448300,12.8184482421875,-0.146148681640625,-1.0013580322265625,-0.124969482421875
1699734122554458000,12.8284580078125,-0.1350555419921875,-0.9979095458984375,-0.1199798583984375
1699734122564498200,12.838498291015625,-0.099151611328125,-0.9786224365234375,-0.0983428955078125
1699734122574508300,12.84850830078125,-0.0753631591796875,-0.9574737548828125,-0.0705108642578125
1699734122584548400,12.85854833984375,-0.064361572265625,-0.9522705078125,-0.055694580078125
1699734122594545200,12.868545166015625,-0.0818328857421875,-0.9823150634765625,-0.0680389404296875
1699734122604585200,12.878585205078124,-0.103271484375,-1.0267791748046875,-0.11041259765625
1699734122614595000,12.888594970703124,-0.1316375732421875,-1.0751190185546875,-0.16510009765625
1699734122624635000,12.898634765625,-0.1699066162109375,-1.1253814697265625,-0.2147979736328125
1699734122634645000,12.90864501953125,-0.188568115234375,-1.173858642578125,-0.2486114501953125
1699734122644686000,12.91868603515625,-0.20037841796875,-1.1947021484375,-0.246246337890625
1699734122654695000,12.92869482421875,-0.2040557861328125,-1.187164306640625,-0.2151031494140625
