time,seconds_elapsed,z,y,x
1699734109846237400,0.120237548828125,0.0007491472060792148,-0.16851603984832764,0.062139272689819336
1699734109856246300,0.130246337890625,0.009869941510260105,-0.17580857872962952,0.05288611724972725
1699734109866287000,0.140287109375,0.0009643306257203221,-0.20768341422080994,0.04958592727780342
1699734109876297200,0.150297119140625,-0.022056033834815025,-0.24956749379634857,0.04802291840314865
1699734109886337300,0.160337158203125,-0.04446600005030632,-0.2859441339969635,0.051238954067230225
1699734109896347400,0.170347412109375,-0.058995410799980164,-0.28967949748039246,0.05633065104484558
1699734109906387500,0.180387451171875,-0.06978654116392136,-0.26608094573020935,0.06397871673107147
1699734109916397300,0.190397216796875,-0.06520696729421616,-0.23449718952178955,0.06822379678487778
1699734109926437400,0.200437255859375,-0.056775663048028946,-0.21955712139606476,0.07318712770938873
1699734109936447500,0.210447509765625,-0.04693395271897316,-0.20965255796909332,0.07815605401992798
1699734109946487300,0.2204873046875,-0.043480366468429565,-0.2023560255765915,0.0883016362786293
1699734109956497200,0.2304970703125,-0.04320259764790535,-0.1858028918504715,0.09391903877258301
1699734109966537200,0.240537109375,-0.03971172496676445,-0.16422729194164276,0.10433652251958847
1699734109976547300,0.25054736328125,-0.03313185274600983,-0.14690981805324554,0.11870241165161133
1699734109986587400,0.26058740234375,-0.024870196357369423,-0.13796691596508026,0.13585343956947327
1699734109996597200,0.27059716796875,-0.011461712419986725,-0.13361798226833344,0.1536308377981186
1699734110006637300,0.28063720703125,-0.005352154839783907,-0.13314686715602875,0.1629423201084137
1699734110016647400,0.2906474609375,0.003906590864062309,-0.13617141544818878,0.16952697932720184
1699734110026687500,0.3006875,-0.0018080200534313917,-0.12245747447013855,0.16688938438892365
1699734110036697300,0.310697265625,-0.014844725839793682,-0.09668899327516556,0.16203124821186066
1699734110046737200,0.320737060546875,-0.020804347470402718,-0.06843391805887222,0.1454717069864273
1699734110056747300,0.330747314453125,-0.025058215484023094,-0.04344175010919571,0.11955516040325165
1699734110066787300,0.340787353515625,-0.027589550241827965,-0.02388775534927845,0.0935392752289772
1699734110076797200,0.350797119140625,-0.02827824279665947,-0.008758338168263435,0.07167818397283554
1699734110086837200,0.360837158203125,-0.026008963584899902,-0.0030684941448271275,0.06403624266386032
1699734110096847400,0.370847412109375,-0.018485799431800842,-0.014918495900928974,0.07134555280208588
1699734110106887400,0.380887451171875,-0.010436661541461945,-0.03789598122239113,0.08718177676200867
1699734110116897300,0.390897216796875,-0.0027601001784205437,-0.06423144787549973,0.1124889925122261
1699734110126937300,0.400937255859375,0.007576426956802607,-0.08996210992336273,0.14061836898326874
1699734110136947500,0.410947509765625,0.021388646215200424,-0.11935781687498093,0.17339682579040527
1699734110146957300,0.420957275390625,0.03320855274796486,-0.15375255048274994,0.20261169970035553
1699734110156997000,0.4309970703125,0.03729730471968651,-0.1903366595506668,0.2248046100139618
1699734110167007200,0.44100732421875,0.027993284165859222,-0.21662046015262604,0.23437361419200897
1699734110177047300,0.45104736328125,0.0038834214210510254,-0.22102932631969452,0.23824000358581543
1699734110187057200,0.46105712890625,-0.01549373846501112,-0.2057132124900818,0.22874955832958221
1699734110197097200,0.47109716796875,-0.026912041008472443,-0.18930387496948242,0.21465663611888885
1699734110207107300,0.481107421875,-0.037589188665151596,-0.1716335415840149,0.19086821377277374
1699734110217147400,0.4911474609375,-0.043234024196863174,-0.14287565648555756,0.16719084978103638
1699734110227157200,0.5011572265625,-0.04152320697903633,-0.12105132639408112,0.14617185294628143
1699734110237197300,0.511197265625,-0.0441080741584301,-0.12017115205526352,0.1254625767469406
1699734110247207400,0.52120751953125,-0.04413044452667236,-0.11869948357343674,0.10699356347322464
1699734110257247200,0.531247314453125,-0.047093477100133896,-0.09721070528030396,0.09277281165122986
1699734110267257000,0.541257080078125,-0.0500144325196743,-0.07716615498065948,0.07433202117681503
1699734110277297200,0.551297119140625,-0.055640093982219696,-0.06216723471879959,0.0508384145796299
1699734110287307300,0.561307373046875,-0.057321079075336456,-0.04231017082929611,0.027823641896247864
1699734110297348400,0.571348388671875,-0.05976799130439758,-0.019999008625745773,0.007413174957036972
1699734110307357200,0.581357177734375,-0.06347058713436127,-0.0009526127250865102,-0.007203850895166397
1699734110317398300,0.591398193359375,-0.06239946186542511,0.020306071266531944,-0.014139787293970585
1699734110327407400,0.601407470703125,-0.060691844671964645,0.036667998880147934,-0.014789598993957043
1699734110337448400,0.611448486328125,-0.056898437440395355,0.04164677858352661,-0.007184675894677639
1699734110347457500,0.62145751953125,-0.047869253903627396,0.0408819206058979,0.00044607947347685695
1699734110357498400,0.631498291015625,-0.040287766605615616,0.042215894907712936,0.010418818332254887
1699734110367507200,0.641507080078125,-0.0351414754986763,0.03965713083744049,0.02105868048965931
1699734110377548300,0.65154833984375,-0.03145059943199158,0.03586452454328537,0.026928020641207695
1699734110387557400,0.661557373046875,-0.031254060566425323,0.053639527410268784,0.03676067665219307
1699734110397598200,0.67159814453125,-0.03214355558156967,0.10509126633405685,0.0320892259478569
1699734110407608300,0.6816083984375,-0.023309316486120224,0.1550697386264801,-0.002517219865694642
1699734110417648400,0.6916484375,-0.024163659662008286,0.17735934257507324,-0.06347724050283432
1699734110427658200,0.701658203125,-0.035902075469493866,0.1887025386095047,-0.11819641292095184
1699734110437698300,0.7116982421875,-0.05840764939785004,0.18926100432872772,-0.1577819138765335
1699734110447708400,0.72170849609375,-0.10274315625429153,0.17664694786071777,-0.1718580424785614
1699734110457748500,0.73174853515625,-0.1750093698501587,0.1750522404909134,-0.14842355251312256
1699734110467758300,0.74175830078125,-0.2241223156452179,0.19241765141487122,-0.109198659658432
1699734110477798100,0.751798095703125,-0.2579820156097412,0.20088143646717072,-0.06497474014759064
1699734110487808300,0.761808349609375,-0.2781943380832672,0.18665030598640442,-0.014128335751593113
1699734110497848300,0.771848388671875,-0.290350079536438,0.15781733393669128,0.04182973876595497
1699734110507858200,0.781858154296875,-0.30650267004966736,0.11078909784555435,0.1091507226228714
1699734110517898200,0.791898193359375,-0.34976091980934143,0.04343162849545479,0.18334105610847473
1699734110527908400,0.801908447265625,-0.4085560739040375,-0.04085022583603859,0.2811320722103119
1699734110537918200,0.811918212890625,-0.41506803035736084,-0.0953558161854744,0.3706025779247284
1699734110547958300,0.821958251953125,-0.3328717052936554,-0.1773710548877716,0.42027825117111206
1699734110557968400,0.831968505859375,-0.18602579832077026,-0.25793275237083435,0.44290897250175476
1699734110568008200,0.84200830078125,-0.0522775836288929,-0.2889060974121094,0.4689413905143738
1699734110578018300,0.852018310546875,0.01847727783024311,-0.253034383058548,0.49841833114624023
1699734110588046300,0.86204638671875,0.0343068391084671,-0.21306540071964264,0.5073398947715759
1699734110598056200,0.87205615234375,0.024033963680267334,-0.1886783093214035,0.485291063785553
1699734110608096300,0.88209619140625,0.010311227291822433,-0.17865124344825745,0.4381653666496277
1699734110618106400,0.8921064453125,0.0013374395202845335,-0.16917730867862701,0.37747299671173096
1699734110628146400,0.902146484375,-0.01155678741633892,-0.12193282693624496,0.3366160988807678
1699734110638156300,0.91215625,-0.023273363709449768,-0.06004469469189644,0.3193955719470978
1699734110648196400,0.9221962890625,-0.03267938271164894,-0.0007962851668708026,0.32304543256759644
1699734110658206500,0.93220654296875,-0.03599848225712776,0.03659209981560707,0.3353867828845978
1699734110668246500,0.94224658203125,-0.031869515776634216,0.051116712391376495,0.36169880628585815
1699734110678256400,0.95225634765625,-0.017056481912732124,0.047267645597457886,0.3934732675552368
1699734110688296200,0.962296142578125,-0.004875448998063803,0.02869449555873871,0.42521655559539795
1699734110698306300,0.972306396484375,0.0039023298304528,0.00016058860637713224,0.44147247076034546
1699734110708346400,0.982346435546875,0.011944809928536415,-0.014580274000763893,0.44922468066215515
1699734110718356500,0.9923564453125,0.01846875622868538,-0.021335914731025696,0.4475495517253876
1699734110728396300,1.002396240234375,0.020686369389295578,-0.031438883394002914,0.4348672926425934
1699734110738406400,1.012406494140625,0.013226056471467018,-0.0414544977247715,0.4082804322242737
1699734110748446500,1.022446533203125,0.008320247754454613,-0.03904380649328232,0.3645856976509094
1699734110758456600,1.03245654296875,-0.0007145261042751372,-0.023544207215309143,0.3291025161743164
1699734110768496600,1.04249658203125,-0.005800365004688501,0.004186755511909723,0.3118894398212433
1699734110778506500,1.052506591796875,-0.00996341835707426,0.029524069279432297,0.30539560317993164
1699734110788546300,1.06254638671875,-0.008815063163638115,0.047988031059503555,0.3083871304988861
1699734110798556400,1.072556396484375,-0.006365221459418535,0.05440917983651161,0.31562480330467224
1699734110808597200,1.08259716796875,-0.002709766384214163,0.05236094072461128,0.31343966722488403
1699734110818606300,1.0926064453125,0.0049319081008434296,0.044667601585388184,0.31353476643562317
1699734110828647400,1.1026474609375,0.01588522270321846,0.03452602028846741,0.3214550018310547
1699734110838656500,1.112656494140625,0.01835903339087963,0.0238235741853714,0.33620357513427734
1699734110848697300,1.122697265625,0.015512380748987198,0.002915628720074892,0.3522680401802063
1699734110858706400,1.13270654296875,0.008988967165350914,-0.02538605034351349,0.36442774534225464
1699734110868747500,1.14274755859375,0.0016421051695942879,-0.04815687611699104,0.3708491623401642
1699734110878756600,1.152756591796875,-0.007731689140200615,-0.057015348225831985,0.35540735721588135
1699734110888797400,1.16279736328125,-0.01805676519870758,-0.05962258204817772,0.32113808393478394
1699734110898806300,1.17280615234375,-0.021555358543992043,-0.06054270640015602,0.2733364701271057
1699734110908847400,1.182847412109375,-0.015663381665945053,-0.06776599586009979,0.23372328281402588
1699734110918857200,1.192857177734375,-0.010980213060975075,-0.06872367113828659,0.22623926401138306
1699734110928866300,1.2028662109375,-0.00863450113683939,-0.06376805901527405,0.23684263229370117
1699734110938907400,1.212907470703125,-0.018490860238671303,-0.06334061920642853,0.2572246193885803
1699734110948916500,1.22291650390625,-0.03579767793416977,-0.04192880913615227,0.2687928378582001
1699734110958957300,1.232957275390625,-0.051653873175382614,-0.013290504924952984,0.24799329042434692
1699734110968966400,1.24296630859375,-0.056654758751392365,0.01107395626604557,0.210948184132576
1699734110979007500,1.253007568359375,-0.03708531707525253,-0.010782606899738312,0.2052343785762787
1699734110989016600,1.2630166015625,-0.001442900625988841,-0.037028323858976364,0.2738073170185089
1699734110999057400,1.273057373046875,0.045533131808042526,-0.061582669615745544,0.3790852725505829
1699734111009066200,1.283066162109375,0.09619923681020737,-0.11566135287284851,0.46553999185562134
1699734111019107300,1.293107421875,0.13726358115673065,-0.1482621729373932,0.5115056037902832
1699734111029117400,1.303117431640625,0.15085023641586304,-0.15093864500522614,0.5133562684059143
1699734111039157500,1.313157470703125,0.15690173208713531,-0.1615140587091446,0.504568338394165
1699734111049167400,1.32316748046875,0.15780533850193024,-0.16846410930156708,0.4889225363731384
1699734111059207400,1.33320751953125,0.151340514421463,-0.17090755701065063,0.4685429632663727
1699734111069217500,1.343217529296875,0.14804218709468842,-0.1697450876235962,0.43737971782684326
1699734111079257600,1.353257568359375,0.14204396307468414,-0.15068857371807098,0.40088164806365967
1699734111089267500,1.363267333984375,0.12588761746883392,-0.12584847211837769,0.3545492887496948
1699734111099307500,1.3733076171875,0.09049634635448456,-0.09587007015943527,0.29280924797058105
1699734111109317600,1.383317626953125,0.034387268126010895,-0.04315785691142082,0.22834262251853943
1699734111119357400,1.393357421875,-0.023327959701418877,0.010553840547800064,0.17108386754989624
1699734111129367300,1.4033671875,-0.06841953843832016,0.04946422204375267,0.1483639031648636
1699734111139407400,1.413407470703125,-0.09154882282018661,0.09755212068557739,0.17533133924007416
1699734111149417500,1.42341748046875,-0.09150142222642899,0.13189305365085602,0.2301623672246933
1699734111159457500,1.43345751953125,-0.06865842640399933,0.11317369341850281,0.3121997117996216
1699734111169467400,1.44346728515625,-0.036611806601285934,0.07964422553777695,0.4090207815170288
1699734111179507500,1.453507568359375,-0.002700977958738804,0.03375956043601036,0.5058719515800476
1699734111189517600,1.463517578125,0.019844545051455498,-0.014029799029231071,0.5693659782409668
1699734111199557600,1.4735576171875,0.03371481969952583,-0.03989867866039276,0.5915314555168152
1699734111209567200,1.483567138671875,0.0433938130736351,-0.03630474582314491,0.5819041728973389
1699734111219607300,1.493607177734375,0.03580620139837265,-0.004573446698486805,0.5556158423423767
1699734111229617400,1.503617431640625,0.00875034835189581,0.06543120741844177,0.5282960534095764
1699734111239657500,1.513657470703125,-0.034144654870033264,0.15289634466171265,0.5087646842002869
1699734111249667300,1.523667236328125,-0.07173331081867218,0.24609312415122986,0.4947125315666199
1699734111259707400,1.533707275390625,-0.08983827382326126,0.3296327590942383,0.4885861873626709
1699734111269717500,1.543717529296875,-0.08926036953926086,0.3790186941623688,0.5095958709716797
1699734111279757600,1.553757568359375,-0.08195745199918747,0.4013860523700714,0.5650287866592407
1699734111289767400,1.563767333984375,-0.07328353822231293,0.3722926080226898,0.6416780352592468
1699734111299777500,1.573777587890625,-0.07121346145868301,0.28742191195487976,0.7188814282417297
1699734111309817300,1.5838173828125,-0.07127657532691956,0.17446528375148773,0.7889193892478943
1699734111319827200,1.5938271484375,-0.0822882130742073,0.07300949841737747,0.8625475168228149
1699734111329867300,1.6038671875,-0.1064140573143959,-0.00890747457742691,0.9323204755783081
1699734111339877400,1.61387744140625,-0.13518445193767548,-0.0682419016957283,0.9947527050971985
1699734111349917400,1.62391748046875,-0.1679578423500061,-0.09937239438295364,1.062488317489624
1699734111359927300,1.63392724609375,-0.19869711995124817,-0.11564403772354126,1.1149837970733643
1699734111369967400,1.64396728515625,-0.22389967739582062,-0.11923052370548248,1.1515330076217651
1699734111379977500,1.6539775390625,-0.25369617342948914,-0.06552894413471222,1.1858360767364502
1699734111390017500,1.664017578125,-0.27796638011932373,0.026794329285621643,1.2120336294174194
1699734111400027400,1.67402734375,-0.2832692563533783,0.11826591938734055,1.2262320518493652
1699734111410067200,1.684067138671875,-0.26455602049827576,0.16743560135364532,1.2371504306793213
1699734111420077300,1.694077392578125,-0.22773249447345734,0.16489361226558685,1.283576488494873
1699734111430118400,1.704118408203125,-0.18044434487819672,0.11037737131118774,1.3627315759658813
1699734111440127500,1.71412744140625,-0.13186082243919373,-0.0024719461798667908,1.4489550590515137
1699734111450168300,1.724168212890625,-0.07865753024816513,-0.16584037244319916,1.528273344039917
1699734111460177400,1.734177490234375,-0.03057601861655712,-0.31305059790611267,1.611513614654541
1699734111470218500,1.744218505859375,0.014708371832966805,-0.41100379824638367,1.7209041118621826
1699734111480227600,1.7542275390625,0.04325373098254204,-0.4343450665473938,1.842015266418457
1699734111490268400,1.764268310546875,0.04658214747905731,-0.39775243401527405,1.9163055419921875
1699734111500277500,1.774277587890625,0.03532310202717781,-0.3463036119937897,1.9002668857574463
1699734111510318600,1.784318603515625,0.02461107075214386,-0.25409460067749023,1.7982516288757324
1699734111520327400,1.794327392578125,0.025714684277772903,-0.12106730043888092,1.6264050006866455
1699734111530368300,1.8043681640625,0.043785031884908676,0.023300528526306152,1.4248851537704468
1699734111540378400,1.81437841796875,0.06318935751914978,0.13446566462516785,1.2329431772232056
1699734111550418400,1.82441845703125,0.0676746517419815,0.20371024310588837,1.0985254049301147
1699734111560428300,1.83442822265625,0.0554153211414814,0.24966149032115936,1.0271148681640625
1699734111570468400,1.84446826171875,0.028294488787651062,0.2597202658653259,1.0079326629638672
1699734111580481500,1.8544814453125,-0.013942980207502842,0.2401747852563858,1.0231600999832153
1699734111590521300,1.864521240234375,-0.05138622596859932,0.22445866465568542,1.0426685810089111
1699734111600531500,1.874531494140625,-0.06406713277101517,0.19221231341362,1.0381550788879395
1699734111610571300,1.8845712890625,-0.05017422139644623,0.15320180356502533,1.0040258169174194
1699734111620581400,1.894581298828125,-0.012781308963894844,0.1224747821688652,0.953619658946991
1699734111630621400,1.904621337890625,0.038477085530757904,0.0920843854546547,0.9007266163825989
1699734111640631600,1.914631591796875,0.07532218098640442,0.07320816814899445,0.8542304635047913
1699734111650671400,1.92467138671875,0.08650346845388412,0.047317713499069214,0.8270308375358582
1699734111660681500,1.934681396484375,0.07690224051475525,0.025129588320851326,0.8230645656585693
1699734111670721500,1.944721435546875,0.05257372930645943,-0.003946272190660238,0.828620970249176
1699734111680731600,1.954731689453125,0.02604544907808304,-0.04958246648311615,0.832419216632843
1699734111690741500,1.964741455078125,0.006428604479879141,-0.07351789623498917,0.8458718657493591
1699734111700781300,1.97478125,-0.003602724289521575,-0.07581513375043869,0.8594843745231628
1699734111710791400,1.98479150390625,-0.0001613875647308305,-0.08002372831106186,0.8759579062461853
1699734111720831500,1.99483154296875,0.009783654473721981,-0.08963987231254578,0.9006813168525696
1699734111730841300,2.00484130859375,0.022828349843621254,-0.09918171167373657,0.9324997067451477
1699734111740881400,2.01488134765625,0.034933749586343765,-0.11534683406352997,0.9551637768745422
1699734111750891500,2.0248916015625,0.04663621261715889,-0.14761582016944885,0.9637148976325989
1699734111760931600,2.034931640625,0.04704367369413376,-0.18915048241615295,0.9586018919944763
1699734111770941400,2.04494140625,0.04291177913546562,-0.22183625400066376,0.9477439522743225
1699734111780981500,2.0549814453125,0.044011667370796204,-0.24037425220012665,0.9251760244369507
1699734111790991600,2.06499169921875,0.046484410762786865,-0.25088468194007874,0.8980538845062256
1699734111801031400,2.075031494140625,0.03629142791032791,-0.24478338658809662,0.8724092245101929
1699734111811041300,2.085041259765625,-0.0010135991033166647,-0.19886809587478638,0.8516994118690491
1699734111821081300,2.095081298828125,-0.04999445751309395,-0.14256194233894348,0.8371977210044861
1699734111831091500,2.105091552734375,-0.09028728306293488,-0.09853962063789368,0.8032029867172241
1699734111841131500,2.115131591796875,-0.11926993727684021,-0.06644347310066223,0.7602270245552063
1699734111851141400,2.125141357421875,-0.138284370303154,-0.028026575222611427,0.7052170634269714
1699734111861181400,2.135181396484375,-0.14958682656288147,0.03495984897017479,0.6456953883171082
1699734111871191600,2.145191650390625,-0.15024782717227936,0.08798471838235855,0.5748504996299744
1699734111881231400,2.1552314453125,-0.15284040570259094,0.10987190902233124,0.5135836601257324
1699734111891241200,2.1652412109375,-0.14823101460933685,0.10378764569759369,0.46661829948425293
1699734111901281300,2.17528125,-0.13823430240154266,0.07712514698505402,0.4395877718925476
1699734111911291400,2.18529150390625,-0.12246892601251602,0.04534723982214928,0.43335941433906555
1699734111921331500,2.19533154296875,-0.09830126911401749,0.029510488733649254,0.42895135283470154
1699734111931341300,2.20534130859375,-0.07063688337802887,0.019217103719711304,0.4199613332748413
1699734111941382400,2.21538232421875,-0.04369501769542694,0.012762666679918766,0.40531259775161743
1699734111951391500,2.2253916015625,-0.021020064130425453,0.008230232633650303,0.3782503604888916
1699734111961432600,2.2354326171875,0.007870705798268318,-0.0009595369338057935,0.34068700671195984
1699734111971441400,2.24544140625,0.034509241580963135,-0.010142382234334946,0.28624454140663147
1699734111981482500,2.255482421875,0.04688228666782379,-0.013140569441020489,0.22539930045604706
1699734111991491300,2.2654912109375,0.05165094509720802,-0.010408165864646435,0.1582367718219757
1699734112001532400,2.275532470703125,0.0651790052652359,-0.019695673137903214,0.08921163529157639
1699734112011541200,2.285541259765625,0.08373404294252396,-0.03639715537428856,0.03286846727132797
1699734112021582300,2.295582275390625,0.09722934663295746,-0.07229017466306686,-0.012183696031570435
1699734112031591400,2.30559130859375,0.11666855961084366,-0.11501766741275787,-0.05429306626319885
1699734112041632500,2.315632568359375,0.12527216970920563,-0.1395464390516281,-0.10946737229824066
1699734112051642400,2.325642333984375,0.07834993302822113,0.007466704584658146,-0.1543291211128235
1699734112061682400,2.335682373046875,0.05795437842607498,0.060144297778606415,-0.24143606424331665
1699734112071692500,2.345692626953125,0.007298126816749573,0.16971899569034576,-0.29026272892951965
1699734112081701600,2.35570166015625,-0.036790769547224045,0.2267865389585495,-0.3189404308795929
1699734112091742500,2.365742431640625,-0.054305847734212875,0.2183872014284134,-0.328380823135376
1699734112101751300,2.375751220703125,-0.05902150645852089,0.18695098161697388,-0.3108031451702118
1699734112111792400,2.38579248046875,-0.0525316521525383,0.14667971432209015,-0.28132620453834534
1699734112121801500,2.395801513671875,-0.02846759371459484,0.07391790300607681,-0.2552323043346405
1699734112131842300,2.40584228515625,0.00935328844934702,-0.030878819525241852,-0.24445076286792755
1699734112141851400,2.415851318359375,0.050285276025533676,-0.12340901792049408,-0.24435514211654663
1699734112151892500,2.425892578125,0.07579409331083298,-0.1877746880054474,-0.2513134479522705
1699734112161902300,2.43590234375,0.08147195726633072,-0.2171562910079956,-0.25674310326576233
1699734112171942400,2.4459423828125,0.05970434099435806,-0.19486269354820251,-0.23525992035865784
1699734112181952500,2.455952392578125,0.019688749685883522,-0.1399722844362259,-0.18861092627048492
1699734112191992600,2.46599267578125,-0.021468274295330048,-0.10872434824705124,-0.1350848525762558
1699734112202002400,2.47600244140625,-0.05091378092765808,-0.09644238650798798,-0.07631953805685043
1699734112212042200,2.486042236328125,-0.06833724677562714,-0.08252417296171188,-0.030170684680342674
1699734112222052400,2.49605224609375,-0.07339458912611008,-0.05608457326889038,-0.004266650415956974
1699734112232092400,2.506092529296875,-0.08543340861797333,0.0007755124825052917,0.008317318744957447
1699734112242102300,2.516102294921875,-0.1044936552643776,0.06076188385486603,0.010656639002263546
1699734112252142300,2.526142333984375,-0.11877351999282837,0.08968381583690643,0.0031875374261289835
1699734112262152400,2.53615234375,-0.11437797546386719,0.08543926477432251,0.0016040218761190772
1699734112272192500,2.546192626953125,-0.09239357709884644,0.05295322835445404,0.011323761194944382
1699734112282202400,2.556202392578125,-0.05909980461001396,-0.011605257168412209,0.028181036934256554
1699734112292242400,2.566242431640625,-0.032654616981744766,-0.0886065661907196,0.059482768177986145
1699734112302252500,2.57625244140625,-0.025727201253175735,-0.15832838416099548,0.1136794239282608
1699734112312292400,2.586292236328125,-0.028010861948132515,-0.21451576054096222,0.19022373855113983
1699734112322302500,2.596302490234375,-0.041297636926174164,-0.22725632786750793,0.249892920255661
1699734112332342300,2.60634228515625,-0.06704162061214447,-0.18345078825950623,0.2731154263019562
1699734112342352400,2.616352294921875,-0.10198042541742325,-0.11942359805107117,0.26370754837989807
1699734112352392400,2.626392333984375,-0.13074283301830292,-0.06247109919786453,0.24659566581249237
1699734112362402600,2.636402587890625,-0.15320153534412384,-0.028417259454727173,0.21723458170890808
1699734112372442400,2.6464423828125,-0.163198783993721,-0.036919135600328445,0.1700742542743683
1699734112382452500,2.656452392578125,-0.15257835388183594,-0.08375801146030426,0.12599201500415802
1699734112392492500,2.666492431640625,-0.13436925411224365,-0.12828579545021057,0.10783378779888153
1699734112402502700,2.676502685546875,-0.10091409832239151,-0.17569832503795624,0.1096322238445282
1699734112412542500,2.68654248046875,-0.06841500848531723,-0.24417005479335785,0.15222148597240448
1699734112422552300,2.69655224609375,-0.07599782943725586,-0.290164977312088,0.21649661660194397
1699734112432592400,2.70659228515625,-0.11503151059150696,-0.2679459750652313,0.2705894112586975
1699734112442602500,2.7166025390625,-0.1384020894765854,-0.23988397419452667,0.2959810495376587
1699734112452642600,2.726642578125,-0.13677889108657837,-0.2937573194503784,0.3353865146636963
1699734112462652400,2.73665234375,-0.13389788568019867,-0.35564836859703064,0.4059278070926666
1699734112472662500,2.74666259765625,-0.14589887857437134,-0.38177984952926636,0.4614853262901306
1699734112482702600,2.75670263671875,-0.15960857272148132,-0.38011857867240906,0.46371281147003174
1699734112492712400,2.76671240234375,-0.1654912233352661,-0.3499782383441925,0.421108603477478
1699734112502752500,2.77675244140625,-0.15521036088466644,-0.29345905780792236,0.3503021001815796
1699734112512762400,2.786762451171875,-0.14379018545150757,-0.25141972303390503,0.2865135073661804
1699734112522802400,2.796802490234375,-0.12087395787239075,-0.2671230435371399,0.29364627599716187
1699734112532812300,2.806812255859375,-0.1210545226931572,-0.36683204770088196,0.3479715585708618
1699734112542852400,2.816852294921875,-0.11520222574472427,-0.522721529006958,0.39368098974227905
1699734112552862500,2.826862548828125,-0.08956263959407806,-0.6928799152374268,0.3461377024650574
1699734112562902500,2.836902587890625,-0.1364915370941162,-0.6781824827194214,0.31478697061538696
1699734112572912400,2.846912353515625,-0.13336259126663208,-0.49845239520072937,0.3106665313243866
1699734112582962000,2.8569619140625,-0.1673453152179718,-0.4614374041557312,0.22597694396972656
1699734112592971000,2.866970947265625,-0.17050915956497192,-0.4521152675151825,0.11674898862838745
1699734112603012000,2.87701220703125,-0.14578330516815186,-0.42209237813949585,0.04565936326980591
1699734112613021000,2.88702099609375,-0.17143939435482025,-0.37726977467536926,0.01715661585330963
1699734112623062000,2.89706201171875,-0.21081024408340454,-0.3452649712562561,0.007114368490874767
1699734112633070800,2.90707080078125,-0.2190878689289093,-0.307911217212677,-0.009896306321024895
1699734112643112000,2.91711181640625,-0.1834297478199005,-0.27722734212875366,-0.04601968824863434
1699734112653121000,2.92712109375,-0.20083163678646088,-0.2174481600522995,-0.07142730802297592
1699734112663162000,2.937162109375,-0.22614018619060516,-0.10957442969083786,-0.06282450258731842
1699734112673172000,2.947171875,-0.2795637249946594,-0.02732110396027565,-0.08378544449806213
1699734112683212000,2.9572119140625,-0.30693089962005615,0.008440356701612473,-0.14846430718898773
1699734112693222100,2.96722216796875,-0.2719987630844116,0.03622298687696457,-0.23282365500926971
1699734112703262000,2.977261962890625,-0.21570353209972382,0.04892253503203392,-0.3195471167564392
1699734112713271800,2.987271728515625,-0.16062615811824799,-0.018741464242339134,-0.3482639789581299
1699734112723311900,2.997311767578125,-0.10108800232410431,-0.13362278044223785,-0.28477367758750916
1699734112733322000,3.007322021484375,-0.04391579329967499,-0.3233999013900757,-0.16491465270519257
1699734112743362000,3.017362060546875,0.014130999334156513,-0.49885880947113037,-0.015901735052466393
1699734112753372000,3.027371826171875,0.04390513896942139,-0.637567937374115,0.11167752742767334
1699734112763412000,3.037411865234375,0.051299408078193665,-0.7502638697624207,0.20289266109466553
1699734112773422000,3.047422119140625,0.05790990591049194,-0.8223428726196289,0.24177055060863495
1699734112783462100,3.057462158203125,0.07974516600370407,-0.7131889462471008,0.1908503770828247
1699734112793472000,3.067471923828125,0.069796122610569,-0.6185460686683655,0.11114756017923355
1699734112803511800,3.07751171875,0.04454642906785011,-0.6163734197616577,0.15809163451194763
1699734112813522000,3.08752197265625,0.01781974360346794,-0.6397450566291809,0.23698751628398895
1699734112823562000,3.09756201171875,0.011430553160607815,-0.6864209771156311,0.2767636775970459
1699734112833571800,3.10757177734375,0.024043550714850426,-0.7057682871818542,0.2981070578098297
1699734112843582000,3.11758203125,0.07216367870569229,-0.6804555058479309,0.2777266800403595
1699734112853622000,3.1276220703125,0.13161182403564453,-0.5829576849937439,0.18165288865566254
1699734112863632000,3.1376318359375,0.1791979819536209,-0.4245251715183258,0.029923809692263603
1699734112873672000,3.147671875,0.18972226977348328,-0.31255629658699036,-0.023140739649534225
1699734112883682000,3.15768212890625,0.18841464817523956,-0.22177207469940186,-0.04116581380367279
1699734112893722000,3.16772216796875,0.19984520971775055,-0.19438758492469788,-0.058884356170892715
1699734112903732000,3.17773193359375,0.24067172408103943,-0.18113170564174652,-0.059534166008234024
1699734112913771800,3.187771728515625,0.29596269130706787,-0.1515415906906128,-0.06058238819241524
1699734112923782000,3.197781982421875,0.33014702796936035,-0.17017678916454315,-0.06727517396211624
1699734112933822000,3.207822021484375,0.34445512294769287,-0.18491153419017792,-0.06438831239938736
1699734112943831800,3.217831787109375,0.369216650724411,-0.25624269247055054,-0.08191058039665222
1699734112953872000,3.227871826171875,0.4383927881717682,-0.320496529340744,-0.1435643583536148
1699734112963882000,3.237882080078125,0.5906654000282288,-0.35165977478027344,-0.2115868180990219
1699734112973922000,3.247922119140625,0.7636004686355591,-0.392939031124115,-0.2915724515914917
1699734112983932000,3.257931884765625,0.8923972845077515,-0.4678769111633301,-0.3823694884777069
1699734112993972000,3.267971923828125,0.9764440059661865,-0.5706222057342529,-0.4422658383846283
1699734113003982000,3.277982177734375,1.0316941738128662,-0.6583036184310913,-0.4236745834350586
1699734113014022000,3.28802197265625,1.0495206117630005,-0.682987630367279,-0.33588799834251404
1699734113024032000,3.298031982421875,1.0451407432556152,-0.655426025390625,-0.1954352706670761
1699734113034071800,3.30807177734375,1.0533825159072876,-0.5593157410621643,-0.03014165721833706
1699734113044082000,3.31808203125,1.080402135848999,-0.4050036668777466,0.126723051071167
1699734113054122000,3.3281220703125,1.1442707777023315,-0.2930244207382202,0.23240074515342712
1699734113064132000,3.338132080078125,1.213851809501648,-0.24593546986579895,0.30550292134284973
1699734113074172000,3.348171875,1.259425163269043,-0.20231369137763977,0.37038710713386536
1699734113084182000,3.35818212890625,1.2822893857955933,-0.1729786992073059,0.4417518377304077
1699734113094223000,3.36822314453125,1.291793942451477,-0.11243733018636703,0.5121711492538452
1699734113104232200,3.378232177734375,1.3139925003051758,-0.06531322747468948,0.5660293102264404
1699734113114273000,3.38827294921875,1.3173414468765259,-0.017000554129481316,0.6041338443756104
1699734113124281900,3.39828173828125,1.275870680809021,0.1033271849155426,0.6020405888557434
1699734113134323000,3.408322998046875,1.2274738550186157,0.25458407402038574,0.5236690640449524
1699734113144332000,3.41833203125,1.194590449333191,0.32956618070602417,0.3611297011375427
1699734113154372900,3.428372802734375,1.2417893409729004,0.4155953526496887,0.16921591758728027
1699734113164382000,3.4383818359375,1.3495608568191528,0.49941274523735046,-0.0344139002263546
1699734113174423000,3.448423095703125,1.4448162317276,0.5843122005462646,-0.2283700555562973
1699734113184432000,3.45843212890625,1.4787894487380981,0.7509781122207642,-0.3924098610877991
1699734113194473000,3.468472900390625,1.5260306596755981,0.9512012600898743,-0.5123168230056763
1699734113204483000,3.478483154296875,1.601256251335144,0.9840417504310608,-0.5521970987319946
1699734113214523100,3.488523193359375,1.694812536239624,0.8259013891220093,-0.4426511824131012
1699734113224533000,3.498532958984375,1.895735502243042,0.5074940919876099,-0.10327845066785812
1699734113234541800,3.508541748046875,2.1158156394958496,0.28630873560905457,0.3210994601249695
1699734113244583000,3.5185830078125,2.1295464038848877,0.2655741572380066,0.45172324776649475
1699734113254592000,3.528592041015625,2.0949552059173584,0.3634570240974426,0.2775985896587372
1699734113264632800,3.5386328125,2.142735481262207,0.49850860238075256,0.063153937458992
1699734113274642000,3.548641845703125,2.2777397632598877,0.5299871563911438,-0.0073500582948327065
1699734113284683000,3.55868310546875,2.4104502201080322,0.518758237361908,0.05068235099315643
1699734113294693000,3.568693115234375,2.546288251876831,0.5369049906730652,0.10496396571397781
1699734113304733000,3.57873291015625,2.709754467010498,0.5540419220924377,0.11135155707597733
1699734113314743000,3.588742919921875,2.937039852142334,0.564034104347229,0.0376104936003685
1699734113324783000,3.598783203125,3.0781431198120117,0.6985474228858948,-0.1422833800315857
1699734113334793000,3.60879296875,3.1261990070343018,0.9243605732917786,-0.41934934258461
1699734113344833000,3.6188330078125,3.2478036880493164,1.0337566137313843,-0.6007798314094543
1699734113354843000,3.6288427734375,3.411325454711914,0.9047067165374756,-0.6082209944725037
1699734113364883000,3.638883056640625,3.491093158721924,0.6554161906242371,-0.5375571846961975
1699734113374893000,3.64889306640625,3.503568410873413,0.5127261281013489,-0.4393472671508789
1699734113384933000,3.65893310546875,3.5394463539123535,0.46822047233581543,-0.3467544913291931
1699734113394943000,3.66894287109375,3.6163082122802734,0.4756818413734436,-0.3800935447216034
1699734113404983000,3.678983154296875,3.776620626449585,0.43717387318611145,-0.5530016422271729
1699734113414993200,3.6889931640625,3.947624921798706,0.37495043873786926,-0.7090471982955933
1699734113425033000,3.699032958984375,4.035662651062012,0.23395444452762604,-0.7356694936752319
1699734113435042800,3.709042724609375,4.0202507972717285,0.07483775913715363,-0.6674965620040894
1699734113445083000,3.719082763671875,3.9349212646484375,-0.03707466274499893,-0.5589269399642944
1699734113455093000,3.729093017578125,3.7950069904327393,-0.19974267482757568,-0.4290972948074341
1699734113465133000,3.739133056640625,3.643432378768921,-0.359953910112381,-0.30967289209365845
1699734113475143000,3.749142822265625,3.4773621559143066,-0.47641581296920776,-0.23246626555919647
1699734113485183000,3.759182861328125,3.278717517852783,-0.5319342017173767,-0.17122101783752441
1699734113495193000,3.769193115234375,3.052051544189453,-0.5231601595878601,-0.10100597888231277
1699734113505233200,3.779233154296875,2.921401023864746,-0.44395560026168823,-0.09660350531339645
1699734113515243000,3.789242919921875,2.8575599193573,-0.35142940282821655,-0.1279158890247345
1699734113525282800,3.79928271484375,2.8531012535095215,-0.2554301619529724,-0.13608859479427338
1699734113535293000,3.80929296875,2.915465831756592,-0.17418165504932404,-0.16808168590068817
1699734113545333000,3.8193330078125,2.9680228233337402,-0.14197604358196259,-0.17400747537612915
1699734113555342800,3.8293427734375,2.9757936000823975,-0.18912091851234436,-0.10101183503866196
1699734113565383000,3.8393828125,2.9428939819335938,-0.32306167483329773,0.055448077619075775
1699734113575393000,3.84939306640625,2.889087200164795,-0.4958670139312744,0.2681600749492645
1699734113585417000,3.8594169921875,2.798976421356201,-0.6722351312637329,0.47992026805877686
1699734113595427000,3.869427001953125,2.714374303817749,-0.8046815991401672,0.6417789459228516
1699734113605468200,3.87946826171875,2.6710152626037598,-0.7922430038452148,0.6813257932662964
1699734113615477000,3.88947705078125,2.64331316947937,-0.6624165773391724,0.5683020353317261
1699734113625487000,3.899487060546875,2.58486270904541,-0.5035699605941772,0.3821071684360504
1699734113635527200,3.909527099609375,2.5047037601470947,-0.38974377512931824,0.23853348195552826
1699734113645537000,3.919537109375,2.3693318367004395,-0.37798911333084106,0.20733508467674255
1699734113655577000,3.9295771484375,2.2110297679901123,-0.4558540880680084,0.2787671983242035
1699734113665587200,3.939587158203125,2.0738322734832764,-0.5589320063591003,0.38817036151885986
1699734113675627000,3.949626953125,1.9844046831130981,-0.6603478193283081,0.4906424283981323
1699734113685637000,3.95963720703125,1.9216291904449463,-0.7191306948661804,0.5689976811408997
1699734113695677000,3.969677001953125,1.9022834300994873,-0.7325248122215271,0.5712536573410034
1699734113705687000,3.97968701171875,1.8729231357574463,-0.7575343251228333,0.5119780898094177
1699734113715728100,3.98972802734375,1.8180040121078491,-0.798427939414978,0.5062568187713623
1699734113725737200,3.9997373046875,1.7384241819381714,-0.8361105918884277,0.5604409575462341
1699734113735778000,4.009778076171875,1.6354634761810303,-0.8793430328369141,0.6152029633522034
1699734113745787100,4.019787109375,1.5112358331680298,-0.9187732338905334,0.6456895470619202
1699734113755828200,4.029828125,1.361786127090454,-0.9332091808319092,0.6487188935279846
1699734113765837300,4.03983740234375,1.183284044265747,-0.9260663390159607,0.6429888010025024
1699734113775878100,4.049878173828125,0.9609382748603821,-0.8815939426422119,0.6306775808334351
1699734113785887000,4.059886962890625,0.695105791091919,-0.812393307685852,0.5983297228813171
1699734113795928000,4.069927978515625,0.4150475263595581,-0.7366005182266235,0.5668266415596008
1699734113805937200,4.079937255859375,0.11568718403577805,-0.6605667471885681,0.5483107566833496
1699734113815978000,4.08997802734375,-0.21545718610286713,-0.5749170780181885,0.5290777087211609
1699734113825988000,4.099988037109375,-0.5740691423416138,-0.4936677813529968,0.4936424791812897
1699734113836028200,4.110028076171875,-0.9534763693809509,-0.4321269094944,0.45806849002838135
1699734113846038000,4.1200380859375,-1.3548709154129028,-0.38845744729042053,0.4513392150402069
1699734113856078000,4.130078125,-1.7678899765014648,-0.38579216599464417,0.4878021478652954
1699734113866088200,4.140088134765625,-2.210066795349121,-0.41687604784965515,0.5606833100318909
1699734113876128300,4.150128173828125,-2.6671602725982666,-0.46620258688926697,0.647508442401886
1699734113886138000,4.16013818359375,-3.1505300998687744,-0.5243961215019226,0.7388996481895447
1699734113896178000,4.170177978515625,-3.626816511154175,-0.5815938711166382,0.8074816465377808
1699734113906188000,4.18018798828125,-4.105240345001221,-0.5910220146179199,0.7835052013397217
1699734113916228000,4.19022802734375,-4.612196445465088,-0.6146426796913147,0.6761712431907654
1699734113926238000,4.200238037109375,-5.1043243408203125,-0.6016022562980652,0.5136939287185669
1699734113936278000,4.210278076171875,-5.516509056091309,-0.5317903757095337,0.231791153550148
1699734113946288000,4.2202880859375,-5.919642448425293,-0.35890674591064453,-0.1385544240474701
1699734113956328200,4.230328125,-6.562047958374023,-0.01558428630232811,-0.3928016126155853
1699734113966338000,4.240338134765625,-7.13166618347168,0.033184584230184555,-0.4750101864337921
1699734113976378000,4.250378173828125,-7.454285621643066,-0.18408355116844177,-0.46558552980422974
1699734113986388200,4.26038818359375,-7.486407279968262,-0.35854804515838623,-0.40361350774765015
1699734113996428000,4.270427978515625,-7.323930263519287,-0.38785320520401,-0.4099595546722412
1699734114006438100,4.280438232421875,-7.1021647453308105,-0.2973693609237671,-0.6352123618125916
1699734114016448000,4.290447998046875,-6.933130741119385,-0.014055631123483181,-1.0270177125930786
1699734114026488000,4.300488037109375,-6.939513683319092,0.40463563799858093,-1.3900412321090698
1699734114036498200,4.310498291015625,-7.087030410766602,0.9279448986053467,-1.6271741390228271
1699734114046538200,4.320538330078125,-7.275590419769287,1.369627833366394,-1.7588306665420532
1699734114056548000,4.330548095703125,-7.340663433074951,1.4257112741470337,-1.8031408786773682
1699734114066588200,4.340588134765625,-7.219375133514404,1.2432698011398315,-1.7999008893966675
1699734114076598300,4.350598388671875,-6.997917652130127,0.9500589966773987,-1.8197736740112305
1699734114086638300,4.360638427734375,-6.85589599609375,0.737009584903717,-1.8414185047149658
1699734114096648000,4.37064794921875,-6.829820156097412,0.5975771546363831,-1.7988499402999878
1699734114106688000,4.38068798828125,-6.779339790344238,0.6374561190605164,-1.736038327217102
1699734114116698000,4.390697998046875,-6.618548393249512,0.8561604619026184,-1.6764905452728271
1699734114126738200,4.40073828125,-6.100342273712158,1.0171419382095337,-1.5118736028671265
1699734114136748000,4.410748046875,-5.437498092651367,1.1449350118637085,-1.2617300748825073
1699734114146788000,4.4207880859375,-4.811275482177734,1.094753384590149,-1.0121495723724365
1699734114156798200,4.430798095703125,-4.393673419952393,0.9477721452713013,-0.861335813999176
1699734114166838300,4.44083837890625,-4.317819118499756,0.6416380405426025,-0.9662294387817383
1699734114176848100,4.45084814453125,-4.367488861083984,0.19800814986228943,-1.1638261079788208
1699734114186888000,4.460887939453125,-4.39103889465332,0.07783620804548264,-1.335508108139038
1699734114196898000,4.47089794921875,-4.31810188293457,0.304364413022995,-1.4958938360214233
1699734114206938000,4.480938232421875,-4.147672653198242,0.6688342690467834,-1.6100995540618896
1699734114216948000,4.490947998046875,-3.9409637451171875,1.119649052619934,-1.6936492919921875
1699734114226989000,4.500989013671875,-3.7667160034179688,1.4555948972702026,-1.6686784029006958
1699734114236998100,4.510998046875,-3.580936908721924,1.3073289394378662,-1.2346705198287964
1699734114247039000,4.5210390625,-3.3889987468719482,1.0088105201721191,-0.48785701394081116
1699734114257048000,4.531048095703125,-3.263868808746338,0.9558825492858887,0.19721719622612
1699734114267089200,4.541089111328125,-3.220372200012207,0.9603484272956848,0.5279834270477295
1699734114277098200,4.55109814453125,-3.253868818283081,0.9240806698799133,0.6333268880844116
1699734114287139000,4.56113916015625,-3.388075113296509,0.9603976607322693,0.6148631572723389
1699734114297148000,4.57114794921875,-3.536301851272583,1.038204312324524,0.5002745389938354
1699734114307189000,4.58118896484375,-3.7185122966766357,1.0401358604431152,0.4502188265323639
1699734114317198000,4.591197998046875,-3.9687085151672363,1.006498098373413,0.45565807819366455
1699734114327239000,4.601239013671875,-4.125235557556152,1.0103007555007935,0.42992740869522095
1699734114337249000,4.6112490234375,-4.079612731933594,1.1423178911209106,0.2636377513408661
1699734114347289000,4.6212890625,-3.8809192180633545,1.2494637966156006,0.06738516688346863
1699734114357299200,4.63129931640625,-3.5467960834503174,1.4282457828521729,-0.13061898946762085
1699734114367339000,4.641339111328125,-3.1663336753845215,1.4366902112960815,-0.20274618268013
1699734114377349000,4.65134912109375,-2.884453058242798,1.2068783044815063,-0.20499442517757416
1699734114387389200,4.66138916015625,-2.786022424697876,0.8687572479248047,-0.11364720016717911
1699734114397399300,4.6713994140625,-2.716068744659424,0.49922552704811096,-0.055394016206264496
1699734114407407900,4.681407958984375,-2.620513677597046,0.16463075578212738,-0.08082427829504013
1699734114417449000,4.691448974609375,-2.506629467010498,-0.15601995587348938,-0.13282889127731323
1699734114427458000,4.7014580078125,-2.388615369796753,-0.5294966101646423,-0.18697787821292877
1699734114437499100,4.7114990234375,-2.2618491649627686,-0.8538443446159363,-0.2644052803516388
1699734114447509000,4.721509033203125,-2.169968843460083,-1.0031075477600098,-0.34531503915786743
1699734114457549000,4.731549072265625,-2.1116139888763428,-0.9806113243103027,-0.4240309000015259
1699734114467559200,4.74155908203125,-2.084656000137329,-0.8567501306533813,-0.4934200942516327
1699734114477599200,4.75159912109375,-2.0675415992736816,-0.691961407661438,-0.5596148371696472
1699734114487609000,4.761609130859375,-2.0360801219940186,-0.577266275882721,-0.5959510207176208
1699734114497649200,4.771649169921875,-2.001255989074707,-0.5105524659156799,-0.5929315090179443
1699734114507659300,4.7816591796875,-1.9587501287460327,-0.45449480414390564,-0.5763328075408936
1699734114517699000,4.791698974609375,-1.9063122272491455,-0.38572025299072266,-0.5540224313735962
1699734114527709000,4.801708984375,-1.7892972230911255,-0.38593173027038574,-0.48360687494277954
1699734114537749000,4.8117490234375,-1.5830439329147339,-0.5101127624511719,-0.33650559186935425
1699734114547759000,4.821759033203125,-1.3745431900024414,-0.6736340522766113,-0.10370641946792603
1699734114557799200,4.831799072265625,-1.221256971359253,-0.8079716563224792,0.12117462605237961
1699734114567809000,4.84180908203125,-1.106250524520874,-0.8770180940628052,0.17486821115016937
1699734114577849000,4.85184912109375,-1.01682710647583,-0.924843430519104,0.09426657855510712
1699734114587862300,4.8618623046875,-0.8996134400367737,-0.9946134090423584,0.04651104286313057
1699734114597902300,4.87190234375,-0.7457814812660217,-1.0255029201507568,0.12685221433639526
1699734114607912200,4.881912109375,-0.5252984166145325,-1.0190311670303345,0.2821408808231354
1699734114617952000,4.891951904296875,-0.25296860933303833,-0.9490478038787842,0.4288341701030731
1699734114627962000,4.901962158203125,0.032280176877975464,-0.8593701124191284,0.5668160319328308
1699734114638002200,4.912002197265625,0.2671973407268524,-0.7748656272888184,0.7316217422485352
1699734114648012300,4.92201220703125,0.4707621932029724,-0.5927029848098755,0.9004363417625427
1699734114658052000,4.932052001953125,0.6786152720451355,-0.37568360567092896,1.0556421279907227
1699734114668062200,4.942062255859375,0.9165273904800415,-0.20314405858516693,1.2255909442901611
1699734114678102300,4.952102294921875,1.1750484704971313,-0.10240573436021805,1.4185431003570557
1699734114688112400,4.9621123046875,1.4594870805740356,-0.08979007601737976,1.576464056968689
1699734114698152200,4.972152099609375,1.7849962711334229,-0.1799604445695877,1.6679364442825317
1699734114708162300,4.982162353515625,2.119089365005493,-0.3773701786994934,1.6605826616287231
1699734114718202000,4.9922021484375,2.469269275665283,-0.6137643456459045,1.579737901687622
1699734114728212200,5.002212158203125,2.744629144668579,-0.7823062539100647,1.5159378051757812
1699734114738253000,5.012253173828125,2.93996524810791,-0.840111494064331,1.4096535444259644
1699734114748262100,5.02226220703125,3.1160624027252197,-0.7671751976013184,1.2809796333312988
1699734114758303200,5.03230322265625,3.2078323364257812,-0.6016208529472351,1.1764354705810547
1699734114768312300,5.042312255859375,3.300835371017456,-0.5844346880912781,1.1914644241333008
1699734114778353200,5.052353271484375,3.3811280727386475,-0.6649401783943176,1.295206069946289
1699734114788362200,5.0623623046875,3.484513998031616,-0.7310648560523987,1.3901660442352295
1699734114798372400,5.072372314453125,3.657461404800415,-0.6937079429626465,1.4695197343826294
1699734114808412400,5.082412353515625,3.8106908798217773,-0.5564209222793579,1.5320156812667847
1699734114818422300,5.09242236328125,3.96824049949646,-0.3566526472568512,1.5938746929168701
1699734114828462000,5.102462158203125,4.083013534545898,-0.10298017412424088,1.5883708000183105
1699734114838472200,5.11247216796875,4.149524688720703,0.11506134271621704,1.535975694656372
1699734114848513000,5.122512939453125,4.143414497375488,0.21777866780757904,1.492394208908081
1699734114858522000,5.132522216796875,3.945059299468994,0.3159792721271515,1.5317072868347168
1699734114868563200,5.142563232421875,3.711749315261841,0.3951134979724884,1.6157035827636719
1699734114878572300,5.152572265625,3.645573854446411,0.40493977069854736,1.6745107173919678
1699734114888613000,5.162613037109375,3.5323331356048584,0.2048165202140808,1.588797926902771
1699734114898622200,5.172622314453125,3.4572536945343018,-0.1915702372789383,1.5021957159042358
1699734114908663300,5.182663330078125,3.4310238361358643,-0.6919049620628357,1.5260757207870483
1699734114918672400,5.19267236328125,3.4182677268981934,-1.3367291688919067,1.6033207178115845
1699734114928713200,5.202713134765625,3.3633291721343994,-2.0947306156158447,1.6775864362716675
1699734114938722000,5.21272216796875,3.2534878253936768,-2.9532225131988525,1.878556251525879
1699734114948763100,5.22276318359375,3.0229897499084473,-3.5825867652893066,2.210344076156616
1699734114958773200,5.232773193359375,2.6635994911193848,-3.8534977436065674,2.4623239040374756
1699734114968813000,5.24281298828125,2.3133134841918945,-3.9218411445617676,2.420713186264038
1699734114978823200,5.2528232421875,1.970447301864624,-3.8158445358276367,2.1853482723236084
1699734114988863200,5.26286328125,1.6775858402252197,-3.715794324874878,1.8728009462356567
1699734114998873300,5.272873291015625,1.4745185375213623,-3.5920045375823975,1.6397119760513306
1699734115008913200,5.2829130859375,1.313316822052002,-3.365795612335205,1.5489046573638916
1699734115018923300,5.29292333984375,1.1862443685531616,-3.0562901496887207,1.4918708801269531
1699734115028963300,5.30296337890625,1.0425748825073242,-2.8420422077178955,1.4422039985656738
1699734115038973400,5.312973388671875,0.9542556405067444,-2.678046226501465,1.391675353050232
1699734115049013200,5.32301318359375,0.9301007390022278,-2.5012288093566895,1.3486887216567993
1699734115059023000,5.333023193359375,0.8977678418159485,-2.316671848297119,1.2768174409866333
1699734115069063200,5.343063232421875,0.8205130100250244,-2.124504804611206,1.1647311449050903
1699734115079073300,5.3530732421875,0.7105140686035156,-1.8956871032714844,1.0085848569869995
1699734115089113300,5.36311328125,0.5803627371788025,-1.6896497011184692,0.8333406448364258
1699734115099123200,5.373123291015625,0.4923771917819977,-1.407149076461792,0.6938466429710388
1699734115109163300,5.383163330078125,0.45263299345970154,-1.0670268535614014,0.5802966952323914
1699734115119173400,5.39317333984375,0.4371616244316101,-0.907672643661499,0.48215946555137634
1699734115129213400,5.40321337890625,0.4206835627555847,-0.8567594289779663,0.4436570703983307
1699734115139223300,5.413223388671875,0.4238535463809967,-0.9640600681304932,0.44405174255371094
1699734115149263000,5.42326318359375,0.47251108288764954,-1.1561179161071777,0.3895658552646637
1699734115159273200,5.433273193359375,0.5683252215385437,-1.2190734148025513,0.23861390352249146
1699734115169313300,5.443313232421875,0.6700481176376343,-1.3218570947647095,-0.018384600058197975
1699734115179323100,5.4533232421875,0.79447340965271,-1.4549200534820557,-0.3084145486354828
1699734115189333200,5.463333251953125,0.9291270971298218,-1.5910427570343018,-0.5293378829956055
1699734115199373300,5.473373291015625,0.9409803152084351,-1.887658715248108,-0.5539790391921997
1699734115209383200,5.483383056640625,0.717586874961853,-2.0659689903259277,-0.4363866448402405
1699734115219423200,5.49342333984375,0.3576236367225647,-1.9866198301315308,-0.21396341919898987
1699734115229433300,5.503433349609375,0.04125609248876572,-1.7246735095977783,0.02033243514597416
1699734115239473200,5.51347314453125,-0.1472373902797699,-1.470821738243103,0.14943449199199677
1699734115249483000,5.52348291015625,-0.14463362097740173,-1.3462316989898682,0.18755684792995453
1699734115259523000,5.533523193359375,0.03960413485765457,-1.3867779970169067,0.16875332593917847
1699734115269533200,5.543533203125,0.32545825839042664,-1.4547911882400513,0.17694920301437378
1699734115279573200,5.5535732421875,0.6289060115814209,-1.5131276845932007,0.23706340789794922
1699734115289583000,5.5635830078125,0.8237705826759338,-1.540899634361267,0.327006071805954
1699734115299623200,5.573623046875,0.8584888577461243,-1.6780668497085571,0.36676228046417236
1699734115309633300,5.58363330078125,0.7922520637512207,-1.7688984870910645,0.33517134189605713
1699734115319673300,5.59367333984375,0.5017270445823669,-1.9018034934997559,0.1761646419763565
1699734115329683200,5.60368310546875,0.10533467680215836,-2.025449514389038,-0.13572533428668976
1699734115339723000,5.613722900390625,-0.2169024795293808,-1.9777952432632446,-0.44956663250923157
1699734115349733000,5.623733154296875,-0.44046953320503235,-1.8183305263519287,-0.6535272002220154
1699734115359773200,5.633773193359375,-0.5466526746749878,-1.792612910270691,-0.7448952198028564
1699734115369783000,5.643782958984375,-0.57615065574646,-2.1218857765197754,-0.6919332146644592
1699734115379824000,5.65382421875,-0.5499086976051331,-2.9084041118621826,-0.4360438883304596
1699734115389833200,5.663833251953125,-0.5585581064224243,-4.177648544311523,-0.06693695485591888
1699734115399874300,5.673874267578125,-0.5423383712768555,-5.253798007965088,0.37497228384017944
1699734115409883100,5.683883056640625,-0.6665335297584534,-5.86754035949707,0.707263171672821
1699734115419924200,5.69392431640625,-0.7741969227790833,-6.026453971862793,0.8402286767959595
1699734115429933300,5.703933349609375,-0.8421429395675659,-5.3909196853637695,0.7801328301429749
1699734115439974400,5.713974365234375,-0.9175927042961121,-4.08774471282959,0.4111228287220001
1699734115449983200,5.723983154296875,-0.9352955222129822,-2.864403486251831,-0.16562864184379578
1699734115460024000,5.734024169921875,-0.8529271483421326,-2.0901479721069336,-0.6132444739341736
1699734115470034200,5.7440341796875,-0.7296685576438904,-2.068574905395508,-0.6105315685272217
1699734115480074200,5.75407421875,-0.5224621295928955,-3.0476675033569336,-0.23889540135860443
1699734115490084000,5.764083984375,-0.34215253591537476,-4.676668167114258,0.3763773739337921
1699734115500124200,5.774124267578125,-0.47925713658332825,-6.1338300704956055,1.1444106101989746
1699734115510134300,5.78413427734375,-0.893241822719574,-6.927236557006836,1.6720174551010132
1699734115520174300,5.79417431640625,-1.2539613246917725,-6.822486400604248,1.7238750457763672
1699734115530184200,5.80418408203125,-1.4683051109313965,-5.896302700042725,1.3862844705581665
1699734115540224300,5.814224365234375,-1.547175407409668,-4.884782791137695,0.9268527626991272
1699734115550234400,5.824234375,-1.5242652893066406,-4.418135166168213,0.6524206399917603
1699734115560274200,5.834274169921875,-1.5451034307479858,-4.450381278991699,0.7313607335090637
1699734115570284000,5.844283935546875,-1.744555115699768,-4.5557966232299805,1.036616325378418
1699734115580294100,5.854294189453125,-2.0676746368408203,-4.699747562408447,1.3986282348632812
1699734115590338600,5.864338623046875,-2.3607585430145264,-4.8932719230651855,1.7697160243988037
1699734115600348400,5.874348388671875,-2.5028574466705322,-5.092887878417969,1.9904934167861938
1699734115610388500,5.884388427734375,-2.507336139678955,-5.3094048500061035,2.005424737930298
1699734115620398600,5.894398681640625,-2.3227179050445557,-5.3642072677612305,1.917032241821289
1699734115630438700,5.904438720703125,-1.9690285921096802,-5.081072807312012,1.7763049602508545
1699734115640448500,5.914448486328125,-1.654914140701294,-4.578598976135254,1.5481376647949219
1699734115650488600,5.924488525390625,-1.4889112710952759,-3.6914446353912354,1.2068356275558472
1699734115660498700,5.934498779296875,-1.4369250535964966,-2.6791176795959473,0.7906786799430847
1699734115670538800,5.944538818359375,-1.4480648040771484,-2.079709768295288,0.5063185691833496
1699734115680548600,5.954548583984375,-1.4261046648025513,-1.704511284828186,0.41258251667022705
1699734115690588400,5.96458837890625,-1.3343318700790405,-1.422083854675293,0.43181878328323364
1699734115700598500,5.9745986328125,-1.1819961071014404,-1.3030277490615845,0.4346015155315399
1699734115710638600,5.984638671875,-0.954585075378418,-1.2479865550994873,0.3915656507015228
1699734115720648400,5.9946484375,-0.6920431852340698,-1.0677510499954224,0.2761210799217224
1699734115730688500,6.0046884765625,-0.4600682556629181,-0.6721403002738953,0.06312704086303711
1699734115740698600,6.01469873046875,-0.26549237966537476,-0.17276990413665771,-0.20048809051513672
1699734115750738700,6.02473876953125,-0.0932452604174614,0.4049999415874481,-0.45436298847198486
1699734115760748500,6.03474853515625,0.07974676042795181,1.0641366243362427,-0.766819417476654
1699734115770788600,6.04478857421875,0.38954323530197144,1.8650000095367432,-1.1832706928253174
1699734115780798500,6.054798583984375,0.7756634950637817,2.8278605937957764,-1.6334775686264038
1699734115790838500,6.064838623046875,1.1700142621994019,3.9296820163726807,-2.0877082347869873
1699734115800848400,6.074848388671875,1.4929851293563843,5.084798812866211,-2.479710102081299
1699734115810888400,6.084888427734375,1.722438097000122,6.1042561531066895,-2.7298903465270996
1699734115820898600,6.094898681640625,1.93166184425354,6.554783821105957,-2.8888182640075684
1699734115830938600,6.104938720703125,2.1760826110839844,6.813562393188477,-3.049757480621338
1699734115840948500,6.114948486328125,2.461932420730591,7.138099193572998,-3.27593994140625
1699734115850988500,6.124988525390625,2.706761121749878,7.607176303863525,-3.5735366344451904
1699734115860998700,6.13499853515625,2.792273759841919,8.185125350952148,-3.8938684463500977
1699734115871038500,6.14503857421875,2.6711013317108154,8.381949424743652,-4.121619701385498
1699734115881048300,6.15504833984375,2.533721685409546,8.329814910888672,-4.153766632080078
1699734115891089400,6.16508935546875,2.510291576385498,7.918650150299072,-4.028413772583008
1699734115901098500,6.175098388671875,2.5741400718688965,7.364659786224365,-3.76198673248291
1699734115911139600,6.1851396484375,2.618252992630005,7.272530555725098,-3.4130361080169678
1699734115921148400,6.1951484375,2.592695713043213,7.739527225494385,-3.2015511989593506
1699734115931189500,6.205189453125,2.5432631969451904,8.462215423583984,-3.1937780380249023
1699734115941198600,6.215198486328125,2.547243595123291,9.34945297241211,-3.323512315750122
1699734115951239700,6.22523974609375,2.529958724975586,10.089252471923828,-3.4887566566467285
1699734115961248500,6.23524853515625,2.352836847305298,9.950427055358887,-3.559364080429077
1699734115971258600,6.245258544921875,2.0475542545318604,8.901252746582031,-3.4204936027526855
1699734115981298400,6.25529833984375,1.6917022466659546,7.368014335632324,-3.0941898822784424
1699734115991308500,6.26530859375,1.3165740966796875,6.062074661254883,-2.727318525314331
1699734116001349400,6.275349365234375,0.9439271092414856,5.428936004638672,-2.4351139068603516
1699734116011358500,6.2853583984375,0.6884122490882874,5.444290637969971,-2.300967216491699
1699734116021399600,6.295399658203125,0.6137757897377014,6.027693271636963,-2.3919925689697266
1699734116031408600,6.30540869140625,0.6795785427093506,6.906434059143066,-2.6136701107025146
1699734116041449500,6.315449462890625,0.7998471260070801,7.6960554122924805,-2.832127094268799
1699734116051458600,6.32545849609375,0.8776207566261292,8.058613777160645,-2.9747612476348877
1699734116061499600,6.335499755859375,0.8293717503547668,7.715410232543945,-2.987652063369751
1699734116071508700,6.3455087890625,0.6604362726211548,6.892685413360596,-2.802210569381714
1699734116081549600,6.355549560546875,0.40805912017822266,5.901424407958984,-2.4076664447784424
1699734116091559700,6.3655595703125,0.1629503071308136,4.967754364013672,-1.97426438331604
1699734116101599500,6.375599609375,0.031556326895952225,4.332437515258789,-1.6603634357452393
1699734116111609300,6.385609375,0.01384098082780838,4.0127644538879395,-1.5323901176452637
1699734116121649400,6.3956494140625,0.06175098195672035,4.153743267059326,-1.643357276916504
1699734116131659500,6.405659423828125,0.17107267677783966,4.56545352935791,-1.8533936738967896
1699734116141699600,6.415699462890625,0.30454710125923157,4.875158309936523,-2.028048515319824
1699734116151709400,6.42570947265625,0.37717685103416443,4.942922592163086,-2.092714786529541
1699734116161749500,6.43574951171875,0.3610639274120331,4.625940799713135,-1.9417715072631836
1699734116171759600,6.445759521484375,0.3079618215560913,3.780479907989502,-1.5951906442642212
1699734116181799700,6.455799560546875,0.1863033026456833,2.5089633464813232,-1.1337028741836548
1699734116191809500,6.4658095703125,0.0706786960363388,1.2839906215667725,-0.6409956812858582
1699734116201849300,6.475849365234375,0.05596499890089035,0.5559442043304443,-0.4242253005504608
1699734116211859500,6.485859375,0.14157018065452576,0.35804709792137146,-0.5490820407867432
1699734116221899500,6.4958994140625,0.2522144019603729,0.5095775127410889,-0.8166410326957703
1699734116231909600,6.50590966796875,0.3027116656303406,0.7916760444641113,-1.063524842262268
1699734116241949400,6.515949462890625,0.31344446539878845,1.1307859420776367,-1.2440035343170166
1699734116251959600,6.52595947265625,0.28149399161338806,1.4155933856964111,-1.3194080591201782
1699734116261999600,6.53599951171875,0.23047848045825958,1.4776362180709839,-1.2384010553359985
1699734116272009700,6.546009765625,0.14065538346767426,1.20460844039917,-1.0233029127120972
1699734116282049500,6.556049560546875,0.011950136162340641,0.7559313178062439,-0.7485325336456299
1699734116292059600,6.5660595703125,-0.09710071980953217,0.47480887174606323,-0.55290687084198
1699734116302099500,6.576099365234375,-0.14463894069194794,0.40381139516830444,-0.5211462378501892
1699734116312109600,6.586109619140625,-0.15630412101745605,0.4511011242866516,-0.6242417693138123
1699734116322149600,6.596149658203125,-0.19890031218528748,0.6349412798881531,-0.8181414604187012
1699734116332159500,6.606159423828125,-0.25480565428733826,0.9525961875915527,-1.0021259784698486
1699734116342199600,6.616199462890625,-0.2579079866409302,1.2532601356506348,-1.128230333328247
1699734116352209700,6.626209716796875,-0.26323696970939636,1.382408618927002,-1.152372121810913
1699734116362219500,6.636219482421875,-0.28669700026512146,1.4856257438659668,-1.0762065649032593
1699734116372259600,6.646259521484375,-0.291514128446579,1.5376328229904175,-0.9826694130897522
1699734116382269700,6.656269775390625,-0.25673672556877136,1.57796311378479,-0.9411296844482422
1699734116392309800,6.666309814453125,-0.1408330202102661,1.6582012176513672,-0.940311849117279
1699734116402319600,6.676319580078125,-0.025802835822105408,1.5425063371658325,-0.960412859916687
1699734116412359400,6.686359375,0.047688424587249756,1.276179313659668,-0.9438104629516602
1699734116422369500,6.69636962890625,0.07548011094331741,0.9020406007766724,-0.9269763231277466
1699734116432409600,6.70640966796875,0.05228317901492119,0.6624423861503601,-0.9363312125205994
1699734116442419500,6.71641943359375,-0.0067692226730287075,0.606705904006958,-0.9799396991729736
1699734116452459500,6.72645947265625,-0.09908956289291382,0.5950819849967957,-1.052167296409607
1699734116462469600,6.7364697265625,-0.19368717074394226,0.5835084319114685,-1.1111400127410889
1699734116472509700,6.746509765625,-0.3317265510559082,0.42726930975914,-1.1690150499343872
1699734116482519600,6.75651953125,-0.46650779247283936,0.2318686544895172,-1.1323167085647583
1699734116492559400,6.766559326171875,-0.5708099603652954,0.10845856368541718,-1.0109455585479736
1699734116502569500,6.776569580078125,-0.6445414423942566,0.043354932218790054,-0.9069672226905823
1699734116512610600,6.786610595703125,-0.6102545857429504,-0.1358736753463745,-0.8352011442184448
1699734116522619400,6.796619384765625,-0.6131925582885742,-0.5904268026351929,-0.7740373611450195
1699734116532660500,6.806660400390625,-0.6420015692710876,-1.0748096704483032,-0.6752786040306091
1699734116542669600,6.816669677734375,-0.7038505673408508,-1.4568716287612915,-0.5176660418510437
1699734116552710700,6.826710693359375,-0.8668354749679565,-1.535213589668274,-0.32263877987861633
1699734116562719500,6.836719482421875,-1.0434739589691162,-1.6757208108901978,-0.10679356008768082
1699734116572760600,6.846760498046875,-1.2295231819152832,-1.7876825332641602,0.07930121570825577
1699734116582769700,6.856769775390625,-1.3538906574249268,-1.8642537593841553,0.2151232212781906
1699734116592819200,6.866819091796875,-1.3591737747192383,-1.8548659086227417,0.3098635971546173
1699734116602828300,6.876828369140625,-1.3192445039749146,-1.7721318006515503,0.3723445534706116
1699734116612869400,6.886869384765625,-1.3164026737213135,-1.879753589630127,0.5574560761451721
1699734116622879200,6.896879150390625,-1.32345712184906,-2.211674928665161,1.0769925117492676
1699734116632919300,6.906919189453125,-1.3131730556488037,-2.6406593322753906,1.8201613426208496
1699734116642929400,6.916929443359375,-1.1911810636520386,-3.1232030391693115,2.597468614578247
1699734116652969500,6.926969482421875,-0.8717133402824402,-3.744734048843384,3.2451224327087402
1699734116662979300,6.936979248046875,-0.3886164426803589,-4.554876804351807,3.7477829456329346
1699734116673019400,6.947019287109375,0.09386418014764786,-5.411217212677002,4.135486602783203
1699734116683029500,6.957029541015625,0.5047861933708191,-6.202374458312988,4.490580081939697
1699734116693069300,6.9670693359375,0.8563093543052673,-6.718843936920166,4.899975776672363
1699734116703079200,6.9770791015625,1.1169776916503906,-6.9782328605651855,5.320889949798584
1699734116713119200,6.987119140625,1.3077337741851807,-7.213094711303711,5.754410266876221
1699734116723129300,6.99712939453125,1.441460371017456,-7.446033000946045,6.1829681396484375
1699734116733169400,7.00716943359375,1.5420138835906982,-7.577713966369629,6.541162490844727
1699734116743179300,7.01717919921875,1.6503190994262695,-7.524300575256348,6.734654903411865
1699734116753189400,7.027189453125,1.733664870262146,-7.271317958831787,6.719250202178955
1699734116763229400,7.0372294921875,1.7672758102416992,-6.761865615844727,6.55822229385376
1699734116773239300,7.0472392578125,1.7718764543533325,-6.077968597412109,6.365382194519043
1699734116783279400,7.057279296875,1.7385472059249878,-5.389742851257324,6.231830596923828
1699734116793289200,7.067289306640625,1.6681694984436035,-4.823566913604736,6.183030128479004
1699734116803329300,7.077329345703125,1.5855755805969238,-4.38475227355957,6.210149765014648
1699734116813339100,7.087339111328125,1.521745204925537,-4.087125301361084,6.334871292114258
1699734116823379200,7.097379150390625,1.506432294845581,-3.92000675201416,6.527401447296143
1699734116833389300,7.107389404296875,1.5331424474716187,-3.7873520851135254,6.719876766204834
1699734116843429400,7.117429443359375,1.6309161186218262,-3.641833782196045,6.861112117767334
1699734116853439200,7.127439208984375,1.7498595714569092,-3.4550671577453613,6.9746413230896
1699734116863479300,7.137479248046875,1.8272126913070679,-3.2090890407562256,7.040617942810059
1699734116873489400,7.147489501953125,1.863889455795288,-2.9520576000213623,7.075632095336914
1699734116883529200,7.157529296875,1.8419189453125,-2.764173984527588,7.053345680236816
1699734116893539000,7.1675390625,1.751529574394226,-2.752919912338257,7.015655517578125
1699734116903579100,7.1775791015625,1.5649855136871338,-2.8525149822235107,7.002307891845703
1699734116913589200,7.18758935546875,1.3374645709991455,-2.8842175006866455,6.993499279022217
1699734116923629300,7.19762939453125,1.1425831317901611,-2.757739305496216,6.965019702911377
1699734116933639200,7.20763916015625,1.0444707870483398,-2.528059482574463,6.907786846160889
1699734116943679200,7.21767919921875,1.0140472650527954,-2.2149417400360107,6.809451580047607
1699734116953689300,7.227689453125,0.9667328000068665,-1.8561822175979614,6.713345527648926
1699734116963729400,7.2377294921875,0.9116133451461792,-1.4829391241073608,6.6630682945251465
1699734116973739300,7.2477392578125,0.8931776285171509,-1.0175011157989502,6.610911846160889
1699734116983779000,7.257779052734375,0.9101928472518921,-0.4825139045715332,6.4615302085876465
1699734116993789200,7.2677890625,0.9021466374397278,-0.09427350759506226,6.246737003326416
1699734117003829200,7.277829345703125,0.8266510367393494,0.07443854957818985,6.002459526062012
1699734117013839400,7.28783935546875,0.7690351605415344,0.10451549291610718,5.708487510681152
1699734117023880200,7.297880126953125,0.7724123001098633,0.07269471138715744,5.402437210083008
1699734117033889300,7.30788916015625,0.8327100276947021,0.089323490858078,5.095628261566162
1699734117043930400,7.317930419921875,0.8806173801422119,0.05841244384646416,4.812304973602295
1699734117053939500,7.327939453125,0.8445717096328735,-0.11221575736999512,4.646183967590332
1699734117063980300,7.337980224609375,0.7862247824668884,-0.3636450469493866,4.598199844360352
1699734117073989400,7.3479892578125,0.6988819241523743,-0.5624268651008606,4.58936882019043
1699734117084030500,7.358030517578125,0.6370632648468018,-0.6917473077774048,4.580613613128662
1699734117094039300,7.368039306640625,0.623073935508728,-0.7909423112869263,4.571774482727051
1699734117104080100,7.378080078125,0.6524518132209778,-0.9090625643730164,4.601413249969482
1699734117114089200,7.388089111328125,0.7018404006958008,-0.9979458451271057,4.60529899597168
1699734117124130300,7.39813037109375,0.7460715174674988,-0.9732798933982849,4.535863876342773
1699734117134140200,7.40814013671875,0.7838713526725769,-0.8352938294410706,4.355039596557617
1699734117144149200,7.418149169921875,0.7876895666122437,-0.6956799626350403,4.060009479522705
1699734117154190300,7.4281904296875,0.7619767189025879,-0.5950644612312317,3.7490036487579346
1699734117164199400,7.438199462890625,0.734778106212616,-0.5881575345993042,3.5352911949157715
1699734117174240300,7.448240234375,0.6777723431587219,-0.6436340808868408,3.415518283843994
1699734117184249300,7.458249267578125,0.5373356342315674,-0.712507963180542,3.3634495735168457
1699734117194290400,7.46829052734375,0.3494732975959778,-0.7468651533126831,3.3353097438812256
1699734117204299300,7.47829931640625,0.18574562668800354,-0.7072538137435913,3.2334392070770264
1699734117214340000,7.488340087890625,0.046121954917907715,-0.616862952709198,3.020934581756592
1699734117224349200,7.49834912109375,-0.06298349052667618,-0.43463799357414246,2.6921379566192627
1699734117234390300,7.508390380859375,-0.10491416603326797,-0.2145429253578186,2.291006326675415
1699734117244400400,7.518400390625,-0.1079496368765831,-0.0447634756565094,1.7937690019607544
1699734117254440200,7.528440185546875,-0.10764017701148987,0.06872020661830902,1.2313569784164429
1699734117264450300,7.5384501953125,-0.118615061044693,0.13349707424640656,0.6943454742431641
1699734117274490400,7.548490478515625,-0.13858690857887268,0.1556822657585144,0.2350737601518631
1699734117284500500,7.55850048828125,-0.17589086294174194,0.1569504737854004,-0.15181510150432587
1699734117294540300,7.568540283203125,-0.2353062629699707,0.15706099569797516,-0.46312451362609863
1699734117304550400,7.57855029296875,-0.35772326588630676,0.1342795044183731,-0.7250977754592896
1699734117314590200,7.588590087890625,-0.5502879023551941,0.19760096073150635,-1.0128917694091797
1699734117324600300,7.598600341796875,-0.7793805003166199,0.46690860390663147,-1.4318547248840332
1699734117334640400,7.608640380859375,-1.072190284729004,0.8634692430496216,-1.9716830253601074
1699734117344650200,7.618650146484375,-1.4252593517303467,1.293060302734375,-2.5498745441436768
1699734117354690300,7.628690185546875,-1.7666550874710083,1.7321662902832031,-3.1688272953033447
1699734117364700400,7.638700439453125,-2.07961368560791,2.0443177223205566,-3.7267212867736816
1699734117374740500,7.648740478515625,-2.389533519744873,2.119267225265503,-4.123220443725586
1699734117384750300,7.658750244140625,-2.688258647918701,2.124336004257202,-4.367897987365723
1699734117394790400,7.668790283203125,-2.9469408988952637,2.0811519622802734,-4.4567718505859375
1699734117404800500,7.678800537109375,-3.1370856761932373,1.8217930793762207,-4.372507095336914
1699734117414840300,7.68884033203125,-3.287724494934082,1.3997031450271606,-4.211118698120117
1699734117424850200,7.69885009765625,-3.363956928253174,1.1432489156723022,-4.106354236602783
1699734117434890200,7.70889013671875,-3.3529818058013916,1.0936625003814697,-4.101861476898193
1699734117444900400,7.718900390625,-3.3493311405181885,1.1872403621673584,-4.186305046081543
1699734117454940400,7.7289404296875,-3.4908523559570312,1.3169296979904175,-4.284008502960205
1699734117464950300,7.7389501953125,-3.7239677906036377,1.3561955690383911,-4.333489894866943
1699734117474990300,7.748990234375,-3.866725206375122,1.2686578035354614,-4.438266754150391
1699734117485000400,7.75900048828125,-3.9206464290618896,1.2210103273391724,-4.608770847320557
1699734117495040500,7.76904052734375,-3.9763524532318115,1.2889814376831055,-4.7481689453125
1699734117505050400,7.77905029296875,-4.04368257522583,1.2892175912857056,-4.833579063415527
1699734117515090200,7.789090087890625,-4.1008710861206055,1.150875449180603,-4.831593036651611
1699734117525100300,7.799100341796875,-4.20067024230957,0.9749305248260498,-4.7438578605651855
1699734117535110100,7.809110107421875,-4.3173346519470215,0.7770976424217224,-4.595677375793457
1699734117545150200,7.819150146484375,-4.453227996826172,0.5792487263679504,-4.4535441398620605
1699734117555160300,7.829160400390625,-4.596103191375732,0.5109838843345642,-4.355077743530273
1699734117565200400,7.839200439453125,-4.654278755187988,0.468331515789032,-4.246137619018555
1699734117575210200,7.849210205078125,-4.5796122550964355,0.4675181806087494,-4.230642318725586
1699734117585250300,7.859250244140625,-4.449815273284912,0.5196163058280945,-4.322508335113525
1699734117595246000,7.86924609375,-4.365427494049072,0.5337422490119934,-4.3303327560424805
1699734117605286100,7.8792861328125,-4.373925685882568,0.4760624170303345,-4.248182773590088
1699734117615296000,7.8892958984375,-4.47683572769165,0.35934963822364807,-4.137531280517578
1699734117625336000,7.899336181640625,-4.620567321777344,0.2703388035297394,-4.090600967407227
1699734117635346200,7.90934619140625,-4.725872039794922,0.37289661169052124,-4.1370849609375
1699734117645387300,7.91938720703125,-4.7481584548950195,0.7229784727096558,-4.296810626983643
1699734117655396000,7.92939599609375,-4.70300817489624,1.003442645072937,-4.380641460418701
1699734117665437000,7.93943701171875,-4.620357990264893,0.9418119788169861,-4.239435195922852
1699734117675446000,7.949446044921875,-4.551626682281494,0.6205130815505981,-3.9605729579925537
1699734117685487000,7.959487060546875,-4.497862339019775,0.22369754314422607,-3.652864933013916
1699734117695496200,7.96949609375,-4.4310688972473145,-0.0836259201169014,-3.4228289127349854
1699734117705537000,7.979537109375,-4.384701251983643,-0.2479991465806961,-3.284018039703369
1699734117715546000,7.989546142578125,-4.333469390869141,-0.26267263293266296,-3.1969308853149414
1699734117725587200,7.999587158203125,-4.229244232177734,-0.17609407007694244,-3.168212413787842
1699734117735596300,8.00959619140625,-4.1226911544799805,0.023987092077732086,-3.223822593688965
1699734117745637000,8.01963720703125,-4.0327043533325195,0.19880470633506775,-3.2615725994110107
1699734117755647200,8.029647216796874,-3.9565529823303223,0.21490883827209473,-3.2302486896514893
1699734117765687000,8.03968701171875,-3.955712080001831,0.15767590701580048,-3.178722858428955
1699734117775697000,8.04969677734375,-4.009331703186035,0.07926046848297119,-3.0732991695404053
1699734117785737000,8.059737060546874,-4.009401798248291,0.03237365186214447,-2.9661810398101807
1699734117795747000,8.0697470703125,-3.9447991847991943,0.12946239113807678,-2.991727590560913
1699734117805787100,8.079787109375,-3.8465068340301514,0.3581078052520752,-3.1044366359710693
1699734117815797000,8.089796875,-3.7154319286346436,0.5239894390106201,-3.1867334842681885
1699734117825837000,8.099837158203124,-3.6110973358154297,0.5646687150001526,-3.159715414047241
1699734117835847200,8.10984716796875,-3.5634970664978027,0.5289141535758972,-3.0568346977233887
1699734117845887200,8.11988720703125,-3.552969217300415,0.4202340245246887,-2.9189252853393555
1699734117855897000,8.12989697265625,-3.5370421409606934,0.39238908886909485,-2.847900629043579
1699734117865937000,8.13993701171875,-3.501249074935913,0.5610255002975464,-2.969801664352417
1699734117875947000,8.149947021484374,-3.5041706562042236,0.779530942440033,-3.2019541263580322
1699734117885987000,8.159987060546875,-3.563774347305298,0.9834268093109131,-3.38718581199646
1699734117895997000,8.169996826171875,-3.599017381668091,1.0586224794387817,-3.4557013511657715
1699734117906037000,8.180037109375,-3.5772666931152344,1.0135847330093384,-3.448424816131592
1699734117916047000,8.190047119140624,-3.5164530277252197,0.9205498695373535,-3.439338207244873
1699734117926057200,8.20005712890625,-3.4596691131591797,0.7850961685180664,-3.4083516597747803
1699734117936097000,8.210096923828125,-3.4107394218444824,0.5724166631698608,-3.316230535507202
1699734117946107100,8.220107177734375,-3.350285053253174,0.3303110599517822,-3.179335594177246
1699734117956147200,8.230147216796874,-3.2280263900756836,0.14437155425548553,-3.0709269046783447
1699734117966157300,8.2401572265625,-3.0415217876434326,0.10947190225124359,-3.076566219329834
1699734117976197000,8.250197021484375,-2.8796417713165283,0.2714371085166931,-3.1758055686950684
1699734117986207000,8.26020703125,-2.733593702316284,0.4943026602268219,-3.3309459686279297
1699734117996247000,8.2702470703125,-2.5744383335113525,0.5895751118659973,-3.4715800285339355
1699734118006257200,8.280257080078124,-2.44846773147583,0.5097047686576843,-3.5067901611328125
1699734118016297200,8.290297119140625,-2.380042552947998,0.20897291600704193,-3.4679312705993652
1699734118026307000,8.30030712890625,-2.304600238800049,-0.18791663646697998,-3.4068186283111572
1699734118036347100,8.31034716796875,-2.1559958457946777,-0.5238075852394104,-3.3956661224365234
1699734118046357200,8.320357177734374,-1.9287323951721191,-0.812262237071991,-3.4240641593933105
1699734118056397300,8.330397216796875,-1.6395164728164673,-1.101702332496643,-3.4025444984436035
1699734118066407200,8.3404072265625,-1.2533552646636963,-1.3888970613479614,-3.3311541080474854
1699734118076447000,8.350447021484374,-0.7952681183815002,-1.5050902366638184,-3.2963004112243652
1699734118086457000,8.36045703125,-0.3968118131160736,-1.3410584926605225,-3.2890026569366455
1699734118096497200,8.3704970703125,-0.09935934096574783,-1.1510919332504272,-3.2272911071777344
1699734118106507000,8.380507080078125,0.15102572739124298,-1.1021332740783691,-3.139632225036621
1699734118116547000,8.390547119140624,0.3451022505760193,-1.2203264236450195,-3.0347368717193604
1699734118126557200,8.40055712890625,0.46366140246391296,-1.5485455989837646,-2.899883270263672
1699734118136597200,8.41059716796875,0.3160812556743622,-2.1179451942443848,-2.7414491176605225
1699734118146607000,8.420607177734375,0.32545825839042664,-2.611964225769043,-2.6421964168548584
1699734118156647200,8.430647216796874,0.4769305884838104,-2.8583459854125977,-2.5719165802001953
1699734118166657300,8.4406572265625,0.6631391048431396,-2.906043291091919,-2.5891246795654297
1699734118176698000,8.450697998046875,0.8030080199241638,-2.8827743530273438,-2.7213964462280273
1699734118186707000,8.46070703125,0.7612664699554443,-2.8198180198669434,-2.8978397846221924
1699734118196748000,8.470748046875,0.9811684489250183,-2.6418349742889404,-2.932807207107544
1699734118206757000,8.480757080078124,1.2616299390792847,-2.444767475128174,-2.8631649017333984
1699734118216798000,8.4907978515625,1.528050184249878,-2.235205888748169,-2.6165738105773926
1699734118226807000,8.50080712890625,1.7342400550842285,-2.0122387409210205,-2.2183148860931396
1699734118236848000,8.51084814453125,1.8593080043792725,-1.7385741472244263,-1.7896724939346313
1699734118246857200,8.520857177734374,1.9865142107009888,-1.4133124351501465,-1.3964372873306274
1699734118256898000,8.53089794921875,2.12457013130188,-1.0771757364273071,-1.0735650062561035
1699734118266908200,8.540908203125,2.2790791988372803,-0.8666176199913025,-0.8205918073654175
1699734118276948000,8.550947998046874,2.419466495513916,-0.8439581394195557,-0.607754647731781
1699734118286958000,8.5609580078125,2.5828726291656494,-0.912001371383667,-0.44981083273887634
1699734118296998100,8.570998046875,2.8184814453125,-1.0244001150131226,-0.39286020398139954
1699734118307008000,8.581008056640625,3.1058619022369385,-1.1164237260818481,-0.4028664827346802
1699734118317017000,8.59101708984375,3.4434781074523926,-1.152068018913269,-0.4128698706626892
1699734118327058200,8.60105810546875,3.8452553749084473,-1.198020339012146,-0.39725202322006226
1699734118337067000,8.61106689453125,4.259356498718262,-1.2516249418258667,-0.30758020281791687
1699734118347108000,8.621108154296875,4.636340618133545,-1.247411847114563,-0.13315512239933014
1699734118357117200,8.6311171875,4.905684947967529,-1.1548643112182617,0.054612379521131516
1699734118367158300,8.641158203125,4.978745460510254,-0.9601516127586365,0.18356050550937653
1699734118377168100,8.651168212890624,4.873706817626953,-0.7039451003074646,0.2788641154766083
1699734118387208000,8.6612080078125,4.700082778930664,-0.49885988235473633,0.38860446214675903
1699734118397218000,8.671218017578125,4.546796798706055,-0.4015330374240875,0.5542736053466797
1699734118407258000,8.681258056640624,4.511660099029541,-0.46798744797706604,0.7576149702072144
1699734118417268000,8.69126806640625,4.595191955566406,-0.6953724026679993,0.9721161127090454
1699734118427308000,8.70130810546875,4.7618255615234375,-1.0802383422851562,1.1571067571640015
1699734118437318100,8.711318115234375,4.945465564727783,-1.4626317024230957,1.3002755641937256
1699734118447358200,8.721358154296874,5.013891696929932,-1.7030494213104248,1.3886935710906982
1699734118457368000,8.7313681640625,4.861973285675049,-1.6192877292633057,1.3400189876556396
1699734118467408100,8.741408203125,4.583911895751953,-1.3276350498199463,1.1612836122512817
1699734118477418200,8.751418212890625,4.312232971191406,-1.029755711555481,0.9370739459991455
1699734118487458000,8.7614580078125,4.110019683837891,-0.8412252068519592,0.7630353569984436
1699734118497468000,8.771468017578124,3.9829609394073486,-0.781991720199585,0.6337223649024963
1699734118507508000,8.781508056640625,3.982652187347412,-0.8609043955802917,0.5505845546722412
1699734118517518000,8.79151806640625,4.10660457611084,-1.0606755018234253,0.5309847593307495
1699734118527558100,8.80155810546875,4.262940406799316,-1.3343385457992554,0.5993283987045288
1699734118537568000,8.811568115234374,4.401668071746826,-1.668721318244934,0.8053204417228699
1699734118547608000,8.821608154296875,4.490242958068848,-1.8507288694381714,1.1448074579238892
1699734118557618200,8.8316181640625,4.444798946380615,-1.8168281316757202,1.438690423965454
1699734118567658200,8.841658203125,4.255784511566162,-1.5996601581573486,1.5666606426239014
1699734118577668000,8.851668212890624,3.9681556224823,-1.3220219612121582,1.528261423110962
1699734118587711500,8.86171142578125,3.6583240032196045,-1.0933668613433838,1.4065626859664917
1699734118597721600,8.8717216796875,3.35878324508667,-1.0640740394592285,1.2590546607971191
1699734118607761700,8.88176171875,3.0735180377960205,-1.3455126285552979,1.1472208499908447
1699734118617771500,8.891771484375,2.825878381729126,-1.8677464723587036,1.1461131572723389
1699734118627811600,8.9018115234375,2.6349387168884277,-2.4930386543273926,1.3243827819824219
1699734118637821700,8.91182177734375,2.4680850505828857,-3.0824079513549805,1.6458852291107178
1699734118647861500,8.921861572265625,2.275468349456787,-3.385145425796509,2.022780656814575
1699734118657871400,8.931871337890625,2.0570757389068604,-3.337200164794922,2.3699686527252197
1699734118667911400,8.941911376953126,1.8535147905349731,-3.0691773891448975,2.5862176418304443
1699734118677921500,8.951921630859376,1.638183832168579,-2.795414686203003,2.57011079788208
1699734118687962600,8.961962646484375,1.3910326957702637,-2.597179889678955,2.393946409225464
1699734118697971500,8.971971435546875,1.158355474472046,-2.33306622505188,2.1431825160980225
1699734118707981600,8.981981689453125,0.9378833174705505,-2.1875174045562744,1.8740179538726807
1699734118718021600,8.992021728515626,0.6646240949630737,-2.4329915046691895,1.6564885377883911
1699734118728031700,9.00203173828125,0.35905376076698303,-2.9770710468292236,1.580365538597107
1699734118738071800,9.01207177734375,0.10481030493974686,-3.741131544113159,1.6628525257110596
1699734118748081700,9.02208154296875,-0.014303038828074932,-4.551572799682617,1.9270886182785034
1699734118758121500,9.03212158203125,-0.018859973177313805,-5.2542924880981445,2.324805498123169
1699734118768131600,9.042131591796876,0.03554734215140343,-5.801660060882568,2.760692596435547
1699734118778171600,9.052171630859375,0.06843844801187515,-6.135043144226074,3.0876283645629883
1699734118788181500,9.062181396484375,0.017971277236938477,-6.283006191253662,3.203489065170288
1699734118798222600,9.07222265625,-0.08718843013048172,-6.206357479095459,3.0713999271392822
1699734118808231700,9.082231689453126,-0.25971174240112305,-5.931267738342285,2.6308510303497314
1699734118818272500,9.0922724609375,-0.5340505838394165,-5.6554083824157715,2.0240564346313477
1699734118828281600,9.102281494140625,-0.8740726113319397,-5.43892765045166,1.4681458473205566
1699734118838322700,9.11232275390625,-1.2164419889450073,-5.2525715827941895,1.1530600786209106
1699734118848331800,9.122331787109376,-1.4774298667907715,-5.033239364624023,1.0717138051986694
1699734118858372600,9.13237255859375,-1.588266372680664,-4.8442301750183105,1.081017017364502
1699734118868381400,9.14238134765625,-1.5750526189804077,-4.6075873374938965,1.088919997215271
1699734118878422500,9.152422607421874,-1.4966187477111816,-4.456523418426514,1.0486561059951782
1699734118888432400,9.162432373046874,-1.3894073963165283,-4.55157470703125,0.9521903395652771
1699734118898472400,9.172472412109375,-1.2611734867095947,-4.618262767791748,0.8684248924255371
1699734118908482600,9.182482666015625,-1.1776095628738403,-4.683988094329834,0.7352327108383179
1699734118918522600,9.192522705078124,-1.0847049951553345,-4.688460350036621,0.46554771065711975
1699734118928532500,9.202532470703124,-1.0314832925796509,-4.580313205718994,0.0813683569431305
1699734118938572500,9.212572509765625,-1.0274027585983276,-4.336291790008545,-0.3115815818309784
1699734118948582700,9.222582763671875,-1.0565862655639648,-3.9333841800689697,-0.6625979542732239
1699734118958622700,9.232622802734374,-1.114274263381958,-3.6119210720062256,-0.9324358105659485
1699734118968632600,9.242632568359374,-1.1635371446609497,-3.378814697265625,-1.0550637245178223
1699734118978672400,9.25267236328125,-1.1807878017425537,-3.206141471862793,-1.0039355754852295
1699734118988682500,9.2626826171875,-1.1577565670013428,-3.0981123447418213,-0.8306889533996582
1699734118998722600,9.27272265625,-1.034976601600647,-3.0135717391967773,-0.6314861178398132
1699734119008732700,9.282732666015624,-0.8916133046150208,-3.071138858795166,-0.5069050192832947
1699734119018772500,9.2927724609375,-0.8057196736335754,-3.2640790939331055,-0.5849004983901978
1699734119028782600,9.302782470703125,-0.7839776277542114,-3.302811622619629,-0.9047935009002686
1699734119038822700,9.31282275390625,-0.8563093543052673,-3.1993329524993896,-1.3085918426513672
1699734119048832800,9.322832763671874,-0.9697048664093018,-3.0804991722106934,-1.5918281078338623
1699734119058872600,9.33287255859375,-1.089159369468689,-2.9770777225494385,-1.638267993927002
1699734119068882700,9.342882568359375,-1.2056702375411987,-2.8588836193084717,-1.4600354433059692
1699734119078922500,9.352922607421876,-1.2960782051086426,-2.79469895362854,-1.1343382596969604
1699734119088932600,9.3629326171875,-1.346326231956482,-2.888697624206543,-0.7818707823753357
1699734119098972700,9.37297265625,-1.3462049961090088,-3.134819746017456,-0.46996936202049255
1699734119108982500,9.382982421875,-1.314503788948059,-3.571920394897461,-0.2524450421333313
1699734119118992600,9.39299267578125,-1.289682388305664,-4.1217851638793945,-0.1822100132703781
1699734119129032700,9.40303271484375,-1.3102097511291504,-4.678006649017334,-0.1743030995130539
1699734119139042600,9.41304248046875,-1.3509896993637085,-5.118023872375488,-0.11437158286571503
1699734119149082600,9.42308251953125,-1.4009572267532349,-5.369577407836914,0.0004988100845366716
1699734119159092700,9.4330927734375,-1.4424521923065186,-5.349318027496338,0.1366124451160431
1699734119169132800,9.4431328125,-1.475593090057373,-5.104184627532959,0.2047736495733261
1699734119179142400,9.453142333984376,-1.498887538909912,-4.744026184082031,0.16057956218719482
1699734119189182500,9.463182373046875,-1.4876399040222168,-4.391327381134033,-0.025785524398088455
1699734119199192600,9.473192626953125,-1.3965818881988525,-4.1518473625183105,-0.28359735012054443
1699734119209232600,9.483232666015626,-1.269209861755371,-4.020333290100098,-0.5115405321121216
1699734119219242500,9.493242431640626,-1.1477351188659668,-3.9157142639160156,-0.6274745464324951
1699734119229282600,9.503282470703125,-1.0575079917907715,-3.792055130004883,-0.6477140784263611
1699734119239292700,9.513292724609375,-0.9968891143798828,-3.600947856903076,-0.6251043677330017
1699734119249332700,9.523332763671876,-0.9979429244995117,-3.4049999713897705,-0.662518322467804
1699734119259342600,9.533342529296876,-1.0830024480819702,-3.265347480773926,-0.8379162549972534
1699734119269382400,9.54338232421875,-1.1344869136810303,-3.081775665283203,-1.0644463300704956
1699734119279392500,9.553392578125,-1.0810109376907349,-2.8848936557769775,-1.2271825075149536
1699734119289432600,9.5634326171875,-0.955554187297821,-2.7053518295288086,-1.2724056243896484
1699734119299442400,9.5734423828125,-0.8032141923904419,-2.6592414379119873,-1.2266956567764282
1699734119309483500,9.5834833984375,-0.6777782440185547,-2.764479875564575,-1.145627498626709
1699734119319492600,9.59349267578125,-0.6043466329574585,-2.853952407836914,-1.1011366844177246
1699734119329533700,9.60353369140625,-0.5778854489326477,-2.8205413818359375,-1.1505430936813354
1699734119339542500,9.61354248046875,-0.6240066289901733,-2.7795047760009766,-1.3025933504104614
1699734119349583600,9.62358349609375,-0.6673431396484375,-2.748588800430298,-1.419411063194275
1699734119359592700,9.6335927734375,-0.6922240257263184,-2.6654930114746094,-1.4670419692993164
1699734119369633800,9.6436337890625,-0.7906839847564697,-2.535475730895996,-1.5777058601379395
1699734119379642400,9.653642333984376,-0.9578437209129333,-2.483156681060791,-1.870041847229004
1699734119389683500,9.663683349609375,-1.0352095365524292,-2.3417811393737793,-2.1810014247894287
1699734119399692500,9.673692626953125,-0.9486070275306702,-2.1692845821380615,-2.4052348136901855
1699734119409733600,9.683733642578124,-0.7940707206726074,-2.1173720359802246,-2.5023186206817627
1699734119419743500,9.693743408203124,-0.6276473999023438,-2.3127241134643555,-2.485191583633423
1699734119429783600,9.703783447265625,-0.4100591540336609,-2.4601376056671143,-2.4136741161346436
1699734119439793700,9.713793701171875,-0.18155381083488464,-2.373276710510254,-2.3997178077697754
1699734119449833700,9.723833740234374,0.03639981895685196,-2.0896944999694824,-2.5688321590423584
1699734119459843600,9.733843505859374,0.26081961393356323,-1.713125467300415,-2.8529250621795654
1699734119469883600,9.743883544921875,0.5168993473052979,-1.3527263402938843,-3.118196487426758
1699734119479893800,9.753893798828125,0.8236483335494995,-1.0063179731369019,-3.2943789958953857
1699734119489933600,9.76393359375,1.1351423263549805,-0.713782548904419,-3.40578556060791
1699734119499943400,9.773943359375,1.453162670135498,-0.46266165375709534,-3.4764060974121094
1699734119509952500,9.783952392578126,1.7726218700408936,-0.27193590998649597,-3.4859840869903564
1699734119519993600,9.79399365234375,2.034419059753418,-0.13934378325939178,-3.467064380645752
1699734119530003500,9.80400341796875,2.239004373550415,-0.06179599091410637,-3.456942558288574
1699734119540043500,9.81404345703125,2.4021570682525635,0.04490089416503906,-3.4716501235961914
1699734119550053600,9.8240537109375,2.5178797245025635,0.15810228884220123,-3.473115921020508
1699734119560093700,9.83409375,2.613646984100342,0.20381304621696472,-3.462472438812256
1699734119570103600,9.844103515625,2.729199171066284,0.2026503086090088,-3.4911842346191406
1699734119580143600,9.8541435546875,2.887786626815796,0.2898896038532257,-3.5696659088134766
1699734119590163200,9.8641630859375,3.1231508255004883,0.5325033068656921,-3.677884817123413
1699734119600203300,9.874203369140625,3.4136874675750732,0.8859093189239502,-3.839867115020752
1699734119610213400,9.88421337890625,3.678553819656372,1.2321738004684448,-4.014975070953369
1699734119620253400,9.89425341796875,3.867872714996338,1.5029799938201904,-4.130501747131348
1699734119630263300,9.90426318359375,4.020284175872803,1.6840437650680542,-4.225130558013916
1699734119640303400,9.914303466796875,4.188515663146973,1.8181469440460205,-4.389007568359375
1699734119650313500,9.9243134765625,4.273897647857666,1.844390869140625,-4.548091411590576
1699734119660353300,9.934353271484374,4.248303413391113,1.726275086402893,-4.578160285949707
1699734119670363100,9.944363037109374,4.165226459503174,1.435017466545105,-4.440495491027832
1699734119680403200,9.9544033203125,4.078006744384766,1.1229830980300903,-4.173539161682129
1699734119690413300,9.964413330078125,4.006022930145264,0.9488848447799683,-3.9122228622436523
1699734119700453400,9.974453369140624,3.88763427734375,0.9526364207267761,-3.8112645149230957
1699734119710463200,9.984463134765624,3.7454776763916016,1.0839263200759888,-3.826815605163574
1699734119720503300,9.99450341796875,3.511401891708374,1.0394397974014282,-3.666257381439209
1699734119730513400,10.004513427734375,3.230457067489624,0.8459075689315796,-3.3257532119750977
1699734119740553500,10.014553466796874,2.9301459789276123,0.7065901756286621,-2.914886236190796
1699734119750563300,10.024563232421874,2.741701602935791,0.6805657744407654,-2.5512824058532715
1699734119760603100,10.03460302734375,2.6723263263702393,0.5860546827316284,-2.258542776107788
1699734119770613200,10.04461328125,2.6416451930999756,0.4641261100769043,-2.0273029804229736
1699734119780653300,10.0546533203125,2.6269185543060303,0.4743369519710541,-1.8276342153549194
1699734119790663200,10.0646630859375,2.7283174991607666,0.7225254774093628,-1.7139774560928345
1699734119800703200,10.074703125,2.9778730869293213,1.0614744424819946,-1.6932623386383057
1699734119810713300,10.08471337890625,3.1446750164031982,1.2636255025863647,-1.6300559043884277
1699734119820754200,10.094754150390624,3.1392009258270264,1.0462771654129028,-1.4350019693374634
1699734119830763300,10.10476318359375,3.081874132156372,0.7001215815544128,-1.158789038658142
1699734119840804400,10.114804443359375,3.0685670375823975,0.42481520771980286,-0.9243959784507751
1699734119850813400,10.1248134765625,3.0984811782836914,0.36650794744491577,-0.8801600933074951
1699734119860854300,10.134854248046874,3.244245767593384,0.7286163568496704,-0.9591395854949951
1699734119870863000,10.144863037109374,3.5186378955841064,1.4896745681762695,-1.1579238176345825
1699734119880904200,10.154904296875,3.8100833892822266,2.4531772136688232,-1.4849549531936646
1699734119890913300,10.164913330078125,3.9176228046417236,3.348001718521118,-1.8849222660064697
1699734119900954400,10.174954345703124,3.8548662662506104,3.8467907905578613,-2.186399459838867
1699734119910963200,10.184963134765624,3.6470835208892822,3.451467752456665,-2.3058762550354004
1699734119920973300,10.194973388671874,3.2621004581451416,2.4161484241485596,-2.042916774749756
1699734119931014400,10.205014404296875,2.8377349376678467,1.330796480178833,-1.3674956560134888
1699734119941023200,10.215023193359375,2.5310099124908447,0.5183265209197998,-0.5020825862884521
1699734119951064300,10.225064208984374,2.4104104042053223,0.012615127488970757,0.23935453593730927
1699734119961073400,10.235073486328124,2.3523101806640625,-0.31869834661483765,0.4963410496711731
1699734119971114500,10.245114501953125,2.0551841259002686,-0.4745481312274933,0.20254725217819214
1699734119981123300,10.255123291015625,1.5364452600479126,-0.21281667053699493,-0.17843419313430786
1699734119991164200,10.2651640625,0.9959980249404907,0.18687374889850616,-0.3569679856300354
1699734120001173200,10.27517333984375,0.6146791577339172,0.33321043848991394,-0.3114071488380432
1699734120011214300,10.28521435546875,0.32825323939323425,0.291175901889801,-0.08956796675920486
1699734120021223400,10.295223388671875,0.037937261164188385,0.21759463846683502,0.18216128647327423
1699734120031264300,10.30526416015625,-0.22996209561824799,0.1578812450170517,0.4453130066394806
1699734120041274400,10.3152744140625,-0.5295290946960449,0.056841712445020676,0.6522877812385559
1699734120051314400,10.325314453125,-0.9608930349349976,-0.12130219489336014,0.7896597385406494
1699734120061324300,10.33532421875,-1.450940728187561,-0.33533912897109985,0.9160027503967285
1699734120071364400,10.3453642578125,-1.8397494554519653,-0.5177504420280457,1.0815893411636353
1699734120081374500,10.35537451171875,-2.0405139923095703,-0.6995112299919128,1.2812830209732056
1699734120091414300,10.365414306640625,-2.072248935699463,-0.9039743542671204,1.5246073007583618
1699734120101424000,10.375424072265625,-2.034444570541382,-1.16725492477417,1.8468118906021118
1699734120111464200,10.385464111328124,-2.0056302547454834,-1.5105713605880737,2.2460615634918213
1699734120121474300,10.395474365234374,-1.9950215816497803,-1.8818074464797974,2.657296895980835
1699734120131514400,10.405514404296875,-1.9999985694885254,-2.192225694656372,3.0329177379608154
1699734120141524200,10.415524169921875,-2.0206992626190186,-2.436984062194824,3.32957124710083
1699734120151564300,10.425564208984374,-2.0784449577331543,-2.6286568641662598,3.504899263381958
1699734120161574400,10.435574462890624,-2.127378225326538,-2.6600942611694336,3.554396629333496
1699734120171614500,10.445614501953125,-2.0555200576782227,-2.639233112335205,3.550126791000366
1699734120181624300,10.455624267578125,-1.8860461711883545,-2.582941770553589,3.595210075378418
1699734120191664000,10.4656640625,-1.6935120820999146,-2.4613189697265625,3.674936056137085
1699734120201674200,10.47567431640625,-1.497694730758667,-2.276900291442871,3.821110725402832
1699734120211714300,10.48571435546875,-1.3016213178634644,-2.066450834274292,4.010138034820557
1699734120221724200,10.49572412109375,-1.102469563484192,-1.8596504926681519,4.199525833129883
1699734120231764200,10.50576416015625,-0.9724042415618896,-1.7313263416290283,4.37590217590332
1699734120241774300,10.5157744140625,-0.9105494022369385,-1.6706148386001587,4.5328216552734375
1699734120251814400,10.525814453125,-0.8237090706825256,-1.7341527938842773,4.6784443855285645
1699734120261824300,10.53582421875,-0.717143177986145,-1.8927948474884033,4.878758907318115
1699734120271864300,10.5458642578125,-0.5803076028823853,-2.1069583892822266,5.1164326667785645
1699734120281874400,10.55587451171875,-0.4785548746585846,-2.3484749794006348,5.394322872161865
1699734120291914200,10.565914306640625,-0.3647273778915405,-2.4715418815612793,5.771236419677734
1699734120301924400,10.57592431640625,-0.23753239214420319,-2.4480268955230713,6.184482097625732
1699734120311934200,10.585934326171875,-0.1006094291806221,-2.332285165786743,6.522960662841797
1699734120321974300,10.595974365234374,0.059774916619062424,-2.158853769302368,6.726943016052246
1699734120331984400,10.605984375,0.1518680900335312,-2.0919299125671387,6.617183685302734
1699734120342024400,10.6160244140625,0.20207427442073822,-2.072065591812134,6.2813615798950195
1699734120352034300,10.626034423828125,0.3436471223831177,-2.132937431335449,5.907550811767578
1699734120362074400,10.636074462890624,0.34069767594337463,-1.9821116924285889,5.566683292388916
1699734120372084500,10.64608447265625,0.19490131735801697,-1.6377286911010742,5.487172603607178
1699734120382124300,10.656124267578125,0.25993651151657104,-1.4154889583587646,5.702452182769775
1699734120392134100,10.666134033203125,0.465827614068985,-1.254650592803955,6.0343194007873535
1699734120402174200,10.67617431640625,0.7429990172386169,-1.2096935510635376,6.460495471954346
1699734120412184300,10.686184326171874,0.9173175692558289,-1.0980892181396484,6.7991156578063965
1699734120422224400,10.696224365234375,1.0047606229782104,-0.3685106635093689,6.773765563964844
1699734120432234200,10.706234130859375,1.0398205518722534,-0.1373639851808548,6.5397443771362305
1699734120442275300,10.716275390625,1.0048186779022217,-0.18403294682502747,6.173094749450684
1699734120452284400,10.726284423828124,0.9105773568153381,-0.2640649378299713,5.642323017120361
1699734120462325200,10.7363251953125,0.9028310179710388,-0.47550103068351746,5.120309352874756
1699734120472334300,10.746334228515625,0.9133267998695374,-0.7902296781539917,4.764064788818359
1699734120482375400,10.75637548828125,0.9311864972114563,-1.2225760221481323,4.787571430206299
1699734120492384300,10.76638427734375,0.9679176211357117,-1.6858009099960327,5.25015926361084
1699734120502425000,10.776425048828125,0.9761849045753479,-1.9542521238327026,5.9503679275512695
1699734120512434200,10.78643408203125,0.8975430727005005,-1.839110016822815,6.538778305053711
1699734120522475300,10.796475341796874,0.6896095871925354,-1.428587555885315,6.804934024810791
1699734120532484400,10.806484375,0.3817175328731537,-1.0419503450393677,6.749304294586182
1699734120542525200,10.816525146484375,0.16250821948051453,-0.8872776627540588,6.5067620277404785
1699734120552535300,10.826535400390625,0.1625465750694275,-0.873891294002533,6.107618808746338
1699734120562575400,10.836575439453124,0.27731284499168396,-0.7820193767547607,5.62070894241333
1699734120572585500,10.84658544921875,0.4455689489841461,-0.4990779757499695,5.295285701751709
1699734120582625300,10.856625244140625,0.6302847266197205,-0.1779787838459015,5.193026542663574
1699734120592623400,10.866623291015625,0.7972252368927002,0.12978090345859528,5.2823662757873535
1699734120602663400,10.876663330078125,0.9019317030906677,0.4421001970767975,5.579431533813477
1699734120612673500,10.886673583984376,0.9157601594924927,0.6567797064781189,6.107771873474121
1699734120622713600,10.896713623046875,0.8597530722618103,0.6692731380462646,6.744600772857666
1699734120632723500,10.906723388671875,0.7276166081428528,0.35275033116340637,7.233694076538086
1699734120642763500,10.916763427734375,0.6896961331367493,-0.024569790810346603,7.2473859786987305
1699734120652773600,10.926773681640626,0.8244800567626953,-0.19656126201152802,6.707024574279785
1699734120662813700,10.936813720703125,1.023194432258606,-0.070440873503685,5.8083367347717285
1699734120672823600,10.946823486328125,1.2003064155578613,0.1899627447128296,4.926898002624512
1699734120682863400,10.95686328125,1.2406895160675049,0.36735644936561584,4.349122524261475
1699734120692873500,10.96687353515625,1.1213088035583496,0.5118523836135864,4.084902286529541
1699734120702913500,10.97691357421875,0.9029428958892822,0.7463636994361877,4.032964706420898
1699734120712923600,10.986923583984375,0.7050157189369202,1.0613200664520264,4.068918704986572
1699734120722933500,10.99693359375,0.5136750340461731,1.3948426246643066,4.143948078155518
1699734120732973600,11.0069736328125,0.31494835019111633,1.5592163801193237,4.276912689208984
1699734120742983700,11.016983642578126,0.13511067628860474,1.4899959564208984,4.378420352935791
1699734120753023700,11.027023681640625,0.049614958465099335,1.2570672035217285,4.283712863922119
1699734120763033600,11.03703369140625,0.0512504056096077,0.8635957837104797,4.065860748291016
1699734120773073400,11.047073486328125,0.15222148597240448,0.6116905212402344,3.8169209957122803
1699734120783083500,11.05708349609375,0.30477374792099,0.5729807019233704,3.5103683471679688
1699734120793123600,11.06712353515625,0.40720024704933167,0.5534669160842896,3.202144145965576
1699734120803133400,11.077133544921875,0.42602720856666565,0.5208996534347534,2.9908835887908936
1699734120813173500,11.087173583984375,0.4045773148536682,0.5419942736625671,2.894068479537964
1699734120823183600,11.09718359375,0.3627411723136902,0.6198552846908569,2.862445592880249
1699734120833223700,11.1072236328125,0.2960910499095917,0.6959583163261414,2.8941659927368164
1699734120843233500,11.117233642578125,0.23792414367198944,0.7389832735061646,2.9583709239959717
1699734120853273600,11.127273681640625,0.18709371984004974,0.6861674189567566,2.935183048248291
1699734120863283700,11.13728369140625,0.18454161286354065,0.5015456676483154,2.842273235321045
1699734120873323500,11.147323486328125,0.20873430371284485,0.20272301137447357,2.826136827468872
1699734120883333400,11.15733349609375,0.20098397135734558,-0.00606348505243659,2.876298189163208
1699734120893373400,11.16737353515625,0.2636425495147705,-0.23227931559085846,3.0024454593658447
1699734120903383600,11.177383544921875,0.4962790012359619,-0.41711387038230896,3.203826904296875
1699734120913423600,11.187423583984375,0.7269500494003296,-0.48139166831970215,3.4494426250457764
1699734120923433500,11.19743359375,0.8686043620109558,-0.4765543043613434,3.7708966732025146
1699734120933473500,11.2074736328125,0.9321814775466919,-0.38585129380226135,4.045315742492676
1699734120943483600,11.217483642578125,0.9585614204406738,-0.25376224517822266,4.083564758300781
1699734120953523700,11.227523681640625,0.9660877585411072,-0.09438695758581161,3.8180384635925293
1699734120963533600,11.237533447265625,0.9614578485488892,-0.0311664417386055,3.448873996734619
1699734120973574700,11.24757470703125,0.933302104473114,-0.014279603026807308,3.1308789253234863
1699734120983583500,11.25758349609375,0.8603842258453369,-0.08960897475481033,2.9385085105895996
1699734120993624600,11.26762451171875,0.7486768960952759,-0.24991662800312042,2.894700288772583
1699734121003633400,11.27763330078125,0.6250697374343872,-0.36228445172309875,2.9428255558013916
1699734121013674500,11.287674560546876,0.5278252363204956,-0.3185715973377228,2.9136388301849365
1699734121023683600,11.29768359375,0.46939146518707275,-0.1847677230834961,2.757068634033203
1699734121033724700,11.307724609375,0.4336627423763275,-0.08606990426778793,2.4810471534729004
1699734121043733500,11.3177333984375,0.3849698007106781,-0.08134252578020096,2.128095865249634
1699734121053774600,11.327774658203126,0.30807554721832275,-0.15300312638282776,1.7771731615066528
1699734121063784700,11.33778466796875,0.2286430299282074,-0.21018865704536438,1.4639875888824463
1699734121073824800,11.34782470703125,0.14545519649982452,-0.28209400177001953,1.1722073554992676
1699734121083834600,11.357834716796875,0.05543502792716026,-0.3312378525733948,0.9015511274337769
1699734121093874400,11.36787451171875,-0.036447491496801376,-0.3335862159729004,0.6241679787635803
1699734121103884500,11.377884521484376,-0.08169300109148026,-0.24702709913253784,0.312055379152298
1699734121113893600,11.3878935546875,-0.08718496561050415,-0.18211840093135834,-0.005495166406035423
1699734121123934500,11.3979345703125,-0.10603881627321243,-0.18022356927394867,-0.28156375885009766
1699734121133943600,11.407943603515625,-0.14539314806461334,-0.1682177633047104,-0.5492346286773682
1699734121143984600,11.417984619140626,-0.20526553690433502,-0.10950306057929993,-0.8858022689819336
1699734121153993700,11.42799365234375,-0.30707207322120667,-0.04957953840494156,-1.3128334283828735
1699734121164034600,11.43803466796875,-0.4522058069705963,0.02430800348520279,-1.790593147277832
1699734121174044700,11.448044677734375,-0.6442418098449707,0.07044460624456406,-2.323768138885498
1699734121184084700,11.458084716796876,-0.852218747138977,0.12376482039690018,-2.886676788330078
1699734121194094600,11.468094482421876,-1.0762289762496948,0.2395622581243515,-3.4616658687591553
1699734121204134400,11.478134521484375,-1.2828060388565063,0.4233086407184601,-4.012851238250732
1699734121214144500,11.48814453125,-1.4378728866577148,0.7120184898376465,-4.522440433502197
1699734121224184600,11.4981845703125,-1.5760416984558105,0.9672262668609619,-5.0255022048950195
1699734121234194400,11.5081943359375,-1.7301859855651855,1.123447299003601,-5.429785251617432
1699734121244234500,11.518234375,-1.9373048543930054,1.2379659414291382,-5.716394424438477
1699734121254244600,11.52824462890625,-2.2108466625213623,1.1608021259307861,-5.936706066131592
1699734121264284700,11.53828466796875,-2.4814560413360596,0.9131110906600952,-6.189335346221924
1699734121274294500,11.54829443359375,-2.6892805099487305,0.7970502972602844,-6.525877475738525
1699734121284334600,11.55833447265625,-2.881575584411621,0.6803556084632874,-6.919897079467773
1699734121294344700,11.5683447265625,-2.9859964847564697,0.5025390386581421,-7.259822368621826
1699734121304384500,11.578384521484375,-3.0326602458953857,0.3782442510128021,-7.565176486968994
1699734121314394400,11.588394287109375,-3.1307878494262695,0.31772762537002563,-7.798964023590088
1699734121324434400,11.598434326171875,-3.2378973960876465,0.19800522923469543,-7.887796401977539
1699734121334444500,11.608444580078125,-3.2632861137390137,0.1070401668548584,-7.844814777374268
1699734121344484600,11.618484619140625,-3.211949586868286,0.18700504302978516,-7.728260517120361
1699734121354494500,11.628494384765625,-3.2533793449401855,0.15088404715061188,-7.5336713790893555
1699734121364534500,11.638534423828125,-3.37056827545166,-0.07339618355035782,-7.251619338989258
1699734121374544600,11.648544677734375,-3.463090658187866,-0.34189102053642273,-6.962873935699463
1699734121384584700,11.658584716796875,-3.467129707336426,-0.5285376310348511,-6.807690620422363
1699734121394594600,11.668594482421875,-3.409651517868042,-0.5885090827941895,-6.814215660095215
1699734121404634400,11.67863427734375,-3.347240924835205,-0.5573077201843262,-6.9609222412109375
1699734121414644500,11.68864453125,-3.251688241958618,-0.33544617891311646,-7.194505214691162
1699734121424684500,11.6986845703125,-3.122610330581665,0.04586389288306236,-7.409002304077148
1699734121434694700,11.708694580078125,-3.070603132247925,0.33551356196403503,-7.581146240234375
1699734121444734500,11.718734375,-3.1613852977752686,0.5540690422058105,-7.601627826690674
1699734121454744600,11.72874462890625,-3.334838628768921,0.5792532563209534,-7.4914445877075195
1699734121464784600,11.73878466796875,-3.492450475692749,0.4287441670894623,-7.298314571380615
1699734121474794800,11.748794677734375,-3.613638401031494,0.2044902890920639,-7.075845241546631
1699734121484835600,11.758835693359375,-3.777592658996582,0.0653126910328865,-6.948456764221191
1699734121494844400,11.768844482421875,-3.971816062927246,-0.0009169263648800552,-7.026642322540283
1699734121504885500,11.778885498046876,-4.060911178588867,0.029288912191987038,-7.307196140289307
1699734121514894600,11.78889453125,-4.001967906951904,0.24565397202968597,-7.625466823577881
1699734121524904400,11.798904541015625,-3.7489066123962402,0.6290490031242371,-7.80783224105835
1699734121534944500,11.808944580078125,-3.3593742847442627,0.90363609790802,-7.7432026863098145
1699734121544954600,11.81895458984375,-3.1256275177001953,0.9742549061775208,-7.522573471069336
1699734121554994700,11.82899462890625,-3.0782814025878906,0.8297781348228455,-7.149796009063721
1699734121565004500,11.839004638671875,-3.219221353530884,0.5982101559638977,-6.750032901763916
1699734121575044600,11.849044677734375,-3.490279197692871,0.2775927186012268,-6.428267955780029
1699734121585054700,11.8590546875,-3.767709732055664,-0.020910874009132385,-6.1618123054504395
1699734121595113200,11.86911328125,-3.8647992610931396,-0.1527320146560669,-5.961167335510254
1699734121605122300,11.879122314453125,-3.7137269973754883,-0.07677999883890152,-5.855269908905029
1699734121615163400,11.889163330078125,-3.447068691253662,0.11352922767400742,-5.795882701873779
1699734121625172200,11.899172119140625,-3.235260486602783,0.3581083416938782,-5.734755516052246
1699734121635213000,11.909213134765626,-3.1554293632507324,0.5337494015693665,-5.668247699737549
1699734121645222100,11.91922216796875,-3.2640421390533447,0.5647693872451782,-5.661498069763184
1699734121655263200,11.92926318359375,-3.484903573989868,0.5403002500534058,-5.628777503967285
1699734121665272300,11.939272216796875,-3.633949041366577,0.44873836636543274,-5.505586624145508
1699734121675313200,11.949313232421876,-3.5755152702331543,0.2705113887786865,-5.3111090660095215
1699734121685323300,11.9593232421875,-3.2946319580078125,0.03045697510242462,-5.013369083404541
1699734121695363300,11.96936328125,-2.888767719268799,-0.12526950240135193,-4.678654193878174
1699734121705373200,11.979373291015625,-2.514387369155884,-0.22088657319545746,-4.412769794464111
1699734121715413200,11.989413330078126,-2.2128705978393555,-0.3685505986213684,-4.237314224243164
1699734121725423400,11.99942333984375,-2.0367650985717773,-0.6253496408462524,-4.091917991638184
1699734121735463200,12.009463134765625,-2.0523362159729004,-0.9210662245750427,-3.9736530780792236
1699734121745473000,12.01947314453125,-2.1418871879577637,-1.1007553339004517,-3.8467185497283936
1699734121755513000,12.02951318359375,-2.174506187438965,-1.1437851190567017,-3.75189471244812
1699734121765523200,12.039523193359376,-2.078864097595215,-1.0565886497497559,-3.7751550674438477
1699734121775563300,12.049563232421875,-1.8966535329818726,-0.9415768384933472,-3.8840079307556152
1699734121785573000,12.059572998046875,-1.7513107061386108,-0.9057347178459167,-3.984400749206543
1699734121795613200,12.06961328125,-1.649318814277649,-0.904460072517395,-4.000355243682861
1699734121805623300,12.079623291015626,-1.5404384136199951,-0.874202311038971,-4.002658367156982
1699734121815663400,12.089663330078125,-1.5482665300369263,-1.1792490482330322,-4.075990200042725
1699734121825673200,12.099673095703125,-1.8342242240905762,-1.9981201887130737,-4.099537372589111
1699734121835713000,12.109713134765625,-2.21824049949646,-2.764692783355713,-3.8882579803466797
1699734121845723100,12.11972314453125,-2.468496322631836,-3.025341033935547,-3.4720189571380615
1699734121855763200,12.12976318359375,-2.4654123783111572,-2.77420973777771,-3.000985622406006
1699734121865773300,12.139773193359375,-2.187964677810669,-2.2982747554779053,-2.606426477432251
1699734121875813000,12.149813232421875,-1.818999171257019,-1.7723395824432373,-2.3918490409851074
1699734121885823200,12.1598232421875,-1.6450953483581543,-1.2275856733322144,-2.2585995197296143
1699734121895863300,12.16986328125,-1.6738622188568115,-0.9567621946334839,-2.0816094875335693
1699734121905873400,12.179873291015625,-1.6933767795562744,-0.9243142604827881,-1.9299944639205933
1699734121915913200,12.189913330078125,-1.6786277294158936,-0.8433669209480286,-1.8129562139511108
1699734121925923000,12.199923095703125,-1.6642327308654785,-0.7808423042297363,-1.728577733039856
1699734121935933200,12.20993310546875,-1.651780128479004,-0.8426792621612549,-1.628008484840393
1699734121945973200,12.21997314453125,-1.5904123783111572,-0.9414317011833191,-1.4884974956512451
1699734121955983000,12.229983154296875,-1.4430298805236816,-1.0338397026062012,-1.325996994972229
1699734121966023200,12.240023193359375,-1.209365963935852,-1.0145554542541504,-1.1672568321228027
1699734121976033300,12.250033203125,-0.9330938458442688,-0.8891421556472778,-1.0446335077285767
1699734121986073300,12.2600732421875,-0.65078204870224,-0.6725903749465942,-0.9813790917396545
1699734121996083200,12.270083251953125,-0.3921041190624237,-0.3560800850391388,-0.9887198805809021
1699734122006123300,12.280123291015625,-0.20769992470741272,-0.17856387794017792,-1.0150134563446045
1699734122016133400,12.29013330078125,-0.1367647796869278,-0.27367496490478516,-0.9642598032951355
1699734122026173200,12.300173095703125,-0.12170220166444778,-0.5829135179519653,-0.7560392022132874
1699734122036183000,12.31018310546875,-0.10860876739025116,-0.9560753703117371,-0.40407609939575195
1699734122046223000,12.32022314453125,-0.11118751019239426,-1.2366458177566528,0.03266233950853348
1699734122056233200,12.330233154296875,-0.1540127396583557,-1.2972382307052612,0.43621325492858887
1699734122066273300,12.340273193359375,-0.22103437781333923,-1.2329481840133667,0.79485023021698
1699734122076283100,12.350283203125,-0.18755018711090088,-1.0890169143676758,1.0898395776748657
1699734122086323200,12.3603232421875,-0.04423004388809204,-0.8856658935546875,1.2403664588928223
1699734122096333300,12.370333251953125,0.14274729788303375,-0.5882107615470886,1.1974056959152222
1699734122106374100,12.3803740234375,0.3309933841228485,-0.1399909257888794,0.9583451747894287
1699734122116383200,12.39038330078125,0.44857141375541687,0.3937307894229889,0.5755211114883423
1699734122126424300,12.40042431640625,0.5055007338523865,0.8982373476028442,0.21613629162311554
1699734122136433200,12.41043310546875,0.5458470582962036,1.1355146169662476,0.1377868950366974
1699734122146474200,12.42047412109375,0.58407062292099,1.1265413761138916,0.4811703562736511
1699734122156483000,12.430483154296875,0.649817943572998,1.0237598419189453,1.1402206420898438
1699734122166524200,12.440524169921876,0.7763671278953552,0.9355729818344116,1.9172368049621582
1699734122176533200,12.450533203125,0.9564191699028015,0.9218500256538391,2.6625571250915527
1699734122186574300,12.46057421875,1.168424367904663,1.0344383716583252,3.274341106414795
1699734122196583200,12.470583251953125,1.4077067375183105,1.2730751037597656,3.7112162113189697
1699734122206624300,12.480624267578126,1.6293141841888428,1.5496065616607666,3.9446210861206055
1699734122216634400,12.49063427734375,1.751905083656311,1.8387484550476074,3.9817988872528076
1699734122226674400,12.50067431640625,1.7135870456695557,2.0606794357299805,3.836972713470459
1699734122236684300,12.510684326171875,1.659557819366455,2.129075765609741,3.6060845851898193
1699734122246724000,12.52072412109375,1.6733893156051636,2.1661767959594727,3.4577548503875732
1699734122256734200,12.530734130859376,1.809898853302002,2.2220277786254883,3.480517864227295
1699734122266774300,12.540774169921875,2.0863773822784424,2.265270709991455,3.667908191680908
1699734122276784000,12.5507841796875,2.4244205951690674,2.2562901973724365,3.9626972675323486
1699734122286824200,12.56082421875,2.712463617324829,2.1813693046569824,4.297846794128418
1699734122296834300,12.570834228515626,2.8800032138824463,2.0670249462127686,4.605559825897217
1699734122306874400,12.580874267578125,2.8692123889923096,2.019073963165283,4.846760272979736
1699734122316884200,12.59088427734375,2.697465419769287,2.0810940265655518,4.940667629241943
1699734122326924300,12.60092431640625,2.4759504795074463,2.1282458305358887,4.872842311859131
1699734122336934400,12.610934326171876,2.2864906787872314,2.1238930225372314,4.727917194366455
1699734122346944300,12.6209443359375,2.270533800125122,2.103848934173584,4.5557684898376465
